workerid,proliferate.condition,block_id,condition,item_id,response,rt,trial_num,verb,error,answer,response_correct,response_clean,response_type,response_num,discourse_type
458,condition1,0,juede_contrastive,16,看,35194,1,juede,NA,NA,NA,other,non-other,0,constrained
458,condition1,0,yiwei_unclear,109,叫,20236,2,yiwei,NA,NA,NA,other,non-say,0,unconstrained
458,condition1,0,yiwei_contrastive,1,以为,20705,3,yiwei,NA,NA,NA,yiwei,contra,1,constrained
458,condition1,0,juede_unclear,112,觉得,16884,4,juede,NA,NA,NA,juede,non-belief,1,unconstrained
458,condition1,0,yiwei_contrastive,7,以为,13944,6,yiwei,NA,NA,NA,yiwei,contra,1,constrained
458,condition1,0,juede_contrastive,13,以为,30749,8,juede,NA,NA,NA,yiwei,contra,0,constrained
458,condition1,0,yiwei_unclear,104,看到,46259,9,yiwei,NA,NA,NA,other,factive-other,0,unconstrained
458,condition1,0,juede_unclear,111,觉得,8942,10,juede,NA,NA,NA,juede,non-belief,1,unconstrained
458,condition1,1,yiwei_contrastive,3,以为,10642,12,yiwei,NA,NA,NA,yiwei,contra,1,constrained
458,condition1,1,juede_contrastive,20,觉得,13971,13,juede,NA,NA,NA,juede,non-belief,1,constrained
458,condition1,1,yiwei_unclear,108,觉得,27613,14,yiwei,NA,NA,NA,juede,non-belief,0,unconstrained
458,condition1,1,yiwei_unclear,101,以为,7631,15,yiwei,NA,NA,NA,yiwei,contra,1,unconstrained
458,condition1,1,juede_contrastive,18,觉得,8439,16,juede,NA,NA,NA,juede,non-belief,1,constrained
458,condition1,1,juede_unclear,115,认为,9759,17,juede,NA,NA,NA,other,non-belief,0,unconstrained
458,condition1,1,yiwei_contrastive,2,以为,8355,19,yiwei,NA,NA,NA,yiwei,contra,1,constrained
458,condition1,1,juede_unclear,116,看到,14325,20,juede,NA,NA,NA,other,factive-other,0,unconstrained
458,condition1,2,juede_contrastive,19,觉得,11295,21,juede,NA,NA,NA,juede,non-belief,1,constrained
458,condition1,2,juede_contrastive,17,觉得,9223,23,juede,NA,NA,NA,juede,non-belief,1,constrained
458,condition1,2,juede_unclear,113,认为,11529,24,juede,NA,NA,NA,other,non-belief,0,unconstrained
458,condition1,2,yiwei_contrastive,5,以为,7702,26,yiwei,NA,NA,NA,yiwei,contra,1,constrained
458,condition1,2,yiwei_contrastive,8,以为,12164,27,yiwei,NA,NA,NA,yiwei,contra,1,constrained
458,condition1,2,yiwei_unclear,110,以为,12426,28,yiwei,NA,NA,NA,yiwei,contra,1,unconstrained
458,condition1,2,yiwei_unclear,103,以为,4964,29,yiwei,NA,NA,NA,yiwei,contra,1,unconstrained
458,condition1,2,juede_unclear,114,怕,25360,30,juede,NA,NA,NA,other,non-emotion,0,unconstrained
458,condition1,3,juede_unclear,119,觉得,6185,32,juede,NA,NA,NA,juede,non-belief,1,unconstrained
458,condition1,3,juede_contrastive,14,觉得,9637,34,juede,NA,NA,NA,juede,non-belief,1,constrained
458,condition1,3,juede_unclear,120,以为,7258,35,juede,NA,NA,NA,yiwei,contra,0,unconstrained
458,condition1,3,yiwei_contrastive,10,以为,152364,36,yiwei,NA,NA,NA,yiwei,contra,1,constrained
458,condition1,3,yiwei_contrastive,6,以为,10910,37,yiwei,NA,NA,NA,yiwei,contra,1,constrained
458,condition1,3,yiwei_unclear,106,认为,14196,38,yiwei,NA,NA,NA,other,non-belief,0,unconstrained
458,condition1,3,juede_contrastive,12,觉得,20068,39,juede,NA,NA,NA,juede,non-belief,1,constrained
458,condition1,3,yiwei_unclear,107,以为,7443,40,yiwei,NA,NA,NA,yiwei,contra,1,unconstrained
458,condition1,4,yiwei_unclear,105,以为,25590,41,yiwei,NA,NA,NA,yiwei,contra,1,unconstrained
458,condition1,4,juede_unclear,118,觉得,10096,42,juede,NA,NA,NA,juede,non-belief,1,unconstrained
458,condition1,4,juede_contrastive,11,觉得,12398,44,juede,NA,NA,NA,juede,non-belief,1,constrained
458,condition1,4,yiwei_contrastive,9,认为,15540,46,yiwei,NA,NA,NA,other,non-belief,0,constrained
458,condition1,4,juede_contrastive,15,觉得,16292,47,juede,NA,NA,NA,juede,non-belief,1,constrained
458,condition1,4,yiwei_unclear,102,认为,9056,48,yiwei,NA,NA,NA,other,non-belief,0,unconstrained
458,condition1,4,yiwei_contrastive,4,以为,13960,49,yiwei,NA,NA,NA,yiwei,contra,1,constrained
458,condition1,4,juede_unclear,117,看,29779,50,juede,NA,NA,NA,other,non-other,0,unconstrained
431,condition1,0,juede_unclear,111,知道,4440,1,juede,NA,NA,NA,other,factive-belief,0,unconstrained
431,condition1,0,juede_contrastive,13,用,24219,3,juede,NA,NA,NA,other,verb,0,constrained
431,condition1,0,juede_unclear,119,看,14622,4,juede,NA,NA,NA,other,non-other,0,unconstrained
431,condition1,0,yiwei_unclear,103,看,18509,5,yiwei,NA,NA,NA,other,non-other,0,unconstrained
431,condition1,0,yiwei_contrastive,2,叫,6518,6,yiwei,NA,NA,NA,other,non-say,0,constrained
431,condition1,0,juede_contrastive,20,住,7997,7,juede,NA,NA,NA,other,other,0,constrained
431,condition1,0,yiwei_unclear,110,请,6826,8,yiwei,NA,NA,NA,other,other,0,unconstrained
431,condition1,0,yiwei_contrastive,3,以为,8986,9,yiwei,NA,NA,NA,yiwei,contra,1,constrained
431,condition1,1,yiwei_contrastive,5,以为,5992,11,yiwei,NA,NA,NA,yiwei,contra,1,constrained
431,condition1,1,juede_unclear,116,认,16815,13,juede,NA,NA,NA,other,other,0,unconstrained
431,condition1,1,yiwei_contrastive,7,以为,13267,14,yiwei,NA,NA,NA,yiwei,contra,1,constrained
431,condition1,1,juede_contrastive,11,还是,3297,15,juede,NA,NA,NA,other,other,0,constrained
431,condition1,1,juede_unclear,113,觉得,3588,16,juede,NA,NA,NA,juede,non-belief,1,unconstrained
431,condition1,1,juede_contrastive,18,在,10834,17,juede,NA,NA,NA,other,other,0,constrained
431,condition1,1,yiwei_unclear,104,来,21834,19,yiwei,NA,NA,NA,other,other,0,unconstrained
431,condition1,1,yiwei_unclear,101,知道,7224,20,yiwei,NA,NA,NA,other,factive-belief,0,unconstrained
431,condition1,2,yiwei_contrastive,6,知道,10469,21,yiwei,NA,NA,NA,other,factive-belief,0,constrained
431,condition1,2,yiwei_unclear,102,知道,7815,22,yiwei,NA,NA,NA,other,factive-belief,0,unconstrained
431,condition1,2,juede_unclear,115,说,6874,24,juede,NA,NA,NA,other,non-say,0,unconstrained
431,condition1,2,juede_unclear,114,看,2955,25,juede,NA,NA,NA,other,non-other,0,unconstrained
431,condition1,2,juede_contrastive,16,看,3431,26,juede,NA,NA,NA,other,non-other,0,constrained
431,condition1,2,juede_contrastive,17,吃,5387,27,juede,NA,NA,NA,other,verb,0,constrained
431,condition1,2,yiwei_unclear,108,知道,3979,28,yiwei,NA,NA,NA,other,factive-belief,0,unconstrained
431,condition1,2,yiwei_contrastive,10,知道,3496,29,yiwei,NA,NA,NA,other,factive-belief,0,constrained
431,condition1,3,juede_contrastive,12,知道,5804,31,juede,NA,NA,NA,other,factive-belief,0,constrained
431,condition1,3,yiwei_contrastive,1,知道,3730,32,yiwei,NA,NA,NA,other,factive-belief,0,constrained
431,condition1,3,juede_unclear,112,觉得,2870,33,juede,NA,NA,NA,juede,non-belief,1,unconstrained
431,condition1,3,yiwei_unclear,105,知道,6073,34,yiwei,NA,NA,NA,other,factive-belief,0,unconstrained
431,condition1,3,juede_contrastive,19,觉得,3719,35,juede,NA,NA,NA,juede,non-belief,1,constrained
431,condition1,3,yiwei_unclear,106,知道,2752,36,yiwei,NA,NA,NA,other,factive-belief,0,unconstrained
431,condition1,3,juede_unclear,118,觉得,2851,37,juede,NA,NA,NA,juede,non-belief,1,unconstrained
431,condition1,3,yiwei_contrastive,4,以为,3097,40,yiwei,NA,NA,NA,yiwei,contra,1,constrained
431,condition1,4,juede_contrastive,14,放,7741,41,juede,NA,NA,NA,other,verb,0,constrained
431,condition1,4,juede_unclear,120,住,6609,43,juede,NA,NA,NA,other,other,0,unconstrained
431,condition1,4,yiwei_unclear,107,以为,3161,44,yiwei,NA,NA,NA,yiwei,contra,1,unconstrained
431,condition1,4,juede_contrastive,15,知道,18181,45,juede,NA,NA,NA,other,factive-belief,0,constrained
431,condition1,4,yiwei_contrastive,8,不知道,19701,46,yiwei,NA,NA,NA,other,factive-belief,0,constrained
431,condition1,4,yiwei_unclear,109,说,7297,48,yiwei,NA,NA,NA,other,non-say,0,unconstrained
431,condition1,4,juede_unclear,117,放,4164,49,juede,NA,NA,NA,other,verb,0,unconstrained
431,condition1,4,yiwei_contrastive,9,要的,4750,50,yiwei,NA,NA,NA,other,other,0,constrained
469,condition1,0,juede_unclear,118,觉得,46288,1,juede,NA,NA,NA,juede,non-belief,1,unconstrained
469,condition1,0,juede_contrastive,19,觉得,21324,2,juede,NA,NA,NA,juede,non-belief,1,constrained
469,condition1,0,yiwei_contrastive,3,以为,12765,3,yiwei,NA,NA,NA,yiwei,contra,1,constrained
469,condition1,0,juede_contrastive,17,画的,50041,4,juede,NA,NA,NA,other,other,0,constrained
469,condition1,0,yiwei_contrastive,4,以为,30571,5,yiwei,NA,NA,NA,yiwei,contra,1,constrained
469,condition1,0,yiwei_unclear,110,以为,41819,7,yiwei,NA,NA,NA,yiwei,contra,1,unconstrained
469,condition1,0,juede_unclear,119,觉得,17452,9,juede,NA,NA,NA,juede,non-belief,1,unconstrained
469,condition1,0,yiwei_unclear,103,以为,29822,10,yiwei,NA,NA,NA,yiwei,contra,1,unconstrained
469,condition1,1,juede_unclear,113,认为,16535,11,juede,NA,NA,NA,other,non-belief,0,unconstrained
469,condition1,1,yiwei_unclear,107,以为,9911,12,yiwei,NA,NA,NA,yiwei,contra,1,unconstrained
469,condition1,1,yiwei_contrastive,8,以为,61137,13,yiwei,NA,NA,NA,yiwei,contra,1,constrained
469,condition1,1,yiwei_contrastive,5,以为,10794,14,yiwei,NA,NA,NA,yiwei,contra,1,constrained
469,condition1,1,yiwei_unclear,108,认为,27614,15,yiwei,NA,NA,NA,other,non-belief,0,unconstrained
469,condition1,1,juede_unclear,114,觉得,21755,16,juede,NA,NA,NA,juede,non-belief,1,unconstrained
469,condition1,1,juede_contrastive,15,认为,34489,18,juede,NA,NA,NA,other,non-belief,0,constrained
469,condition1,1,juede_contrastive,13,认为,23693,19,juede,NA,NA,NA,other,non-belief,0,constrained
469,condition1,2,yiwei_contrastive,6,以为,11495,21,yiwei,NA,NA,NA,yiwei,contra,1,constrained
469,condition1,2,juede_contrastive,11,觉得,17650,23,juede,NA,NA,NA,juede,non-belief,1,constrained
469,condition1,2,juede_contrastive,18,觉得,16332,24,juede,NA,NA,NA,juede,non-belief,1,constrained
469,condition1,2,yiwei_contrastive,7,以为,16136,25,yiwei,NA,NA,NA,yiwei,contra,1,constrained
469,condition1,2,juede_unclear,120,感觉,38824,27,juede,NA,NA,NA,other,non-belief,0,unconstrained
469,condition1,2,juede_unclear,112,感觉,41691,28,juede,NA,NA,NA,other,non-belief,0,unconstrained
469,condition1,2,yiwei_unclear,106,像,21925,29,yiwei,NA,NA,NA,other,other,0,unconstrained
469,condition1,2,yiwei_unclear,101,以为,15031,30,yiwei,NA,NA,NA,yiwei,contra,1,unconstrained
469,condition1,3,yiwei_unclear,104,以为,10780,31,yiwei,NA,NA,NA,yiwei,contra,1,unconstrained
469,condition1,3,juede_contrastive,20,认为,58423,32,juede,NA,NA,NA,other,non-belief,0,constrained
469,condition1,3,juede_unclear,111,觉得,12315,33,juede,NA,NA,NA,juede,non-belief,1,unconstrained
469,condition1,3,juede_contrastive,12,觉得,16153,34,juede,NA,NA,NA,juede,non-belief,1,constrained
469,condition1,3,juede_unclear,115,认为,31488,35,juede,NA,NA,NA,other,non-belief,0,unconstrained
469,condition1,3,yiwei_contrastive,2,以为,16183,37,yiwei,NA,NA,NA,yiwei,contra,1,constrained
469,condition1,3,yiwei_contrastive,10,以为,10595,39,yiwei,NA,NA,NA,yiwei,contra,1,constrained
469,condition1,3,yiwei_unclear,109,以为,57420,40,yiwei,NA,NA,NA,yiwei,contra,1,unconstrained
469,condition1,4,juede_contrastive,14,觉得,34465,41,juede,NA,NA,NA,juede,non-belief,1,constrained
469,condition1,4,juede_contrastive,16,觉得,285030,42,juede,NA,NA,NA,juede,non-belief,1,constrained
469,condition1,4,juede_unclear,116,觉得,30329,43,juede,NA,NA,NA,juede,non-belief,1,unconstrained
469,condition1,4,juede_unclear,117,以为,50758,44,juede,NA,NA,NA,yiwei,contra,0,unconstrained
469,condition1,4,yiwei_contrastive,1,以为,11767,45,yiwei,NA,NA,NA,yiwei,contra,1,constrained
469,condition1,4,yiwei_unclear,105,以为,38889,47,yiwei,NA,NA,NA,yiwei,contra,1,unconstrained
469,condition1,4,yiwei_unclear,102,觉得,27160,49,yiwei,NA,NA,NA,juede,non-belief,0,unconstrained
469,condition1,4,yiwei_contrastive,9,以为,25821,50,yiwei,NA,NA,NA,yiwei,contra,1,constrained
449,condition1,0,juede_unclear,116,想,24854,1,juede,NA,NA,NA,other,non-belief,0,unconstrained
449,condition1,0,juede_contrastive,12,看,7636,2,juede,NA,NA,NA,other,non-other,0,constrained
449,condition1,0,juede_contrastive,14,就,14696,3,juede,NA,NA,NA,other,other,0,constrained
449,condition1,0,yiwei_contrastive,10,以为,5100,4,yiwei,NA,NA,NA,yiwei,contra,1,constrained
449,condition1,0,yiwei_unclear,108,觉得,13496,5,yiwei,NA,NA,NA,juede,non-belief,0,unconstrained
449,condition1,0,yiwei_contrastive,4,以为,11808,6,yiwei,NA,NA,NA,yiwei,contra,1,constrained
449,condition1,0,yiwei_unclear,103,以为,11052,8,yiwei,NA,NA,NA,yiwei,contra,1,unconstrained
449,condition1,0,juede_unclear,119,觉得,11852,9,juede,NA,NA,NA,juede,non-belief,1,unconstrained
449,condition1,1,yiwei_contrastive,8,这,26152,11,yiwei,NA,NA,NA,other,other,0,constrained
449,condition1,1,yiwei_unclear,104,看,15989,12,yiwei,NA,NA,NA,other,non-other,0,unconstrained
449,condition1,1,yiwei_contrastive,5,以为,4010,15,yiwei,NA,NA,NA,yiwei,contra,1,constrained
449,condition1,1,juede_unclear,114,担心,9395,16,juede,NA,NA,NA,other,non-emotion,0,unconstrained
449,condition1,1,juede_unclear,112,看,10441,17,juede,NA,NA,NA,other,non-other,0,unconstrained
449,condition1,1,yiwei_unclear,101,以为,4641,18,yiwei,NA,NA,NA,yiwei,contra,1,unconstrained
449,condition1,1,juede_contrastive,18,觉得,11112,19,juede,NA,NA,NA,juede,non-belief,1,constrained
449,condition1,1,juede_contrastive,13,觉得,7860,20,juede,NA,NA,NA,juede,non-belief,1,constrained
449,condition1,2,juede_contrastive,16,觉得,26434,21,juede,NA,NA,NA,juede,non-belief,1,constrained
449,condition1,2,yiwei_contrastive,1,以为,7018,22,yiwei,NA,NA,NA,yiwei,contra,1,constrained
449,condition1,2,yiwei_contrastive,3,以为,28734,23,yiwei,NA,NA,NA,yiwei,contra,1,constrained
449,condition1,2,juede_unclear,113,觉得,3374,25,juede,NA,NA,NA,juede,non-belief,1,unconstrained
449,condition1,2,yiwei_unclear,110,以为,4908,26,yiwei,NA,NA,NA,yiwei,contra,1,unconstrained
449,condition1,2,juede_unclear,111,觉得,3410,27,juede,NA,NA,NA,juede,non-belief,1,unconstrained
449,condition1,2,yiwei_unclear,102,以为,3908,28,yiwei,NA,NA,NA,yiwei,contra,1,unconstrained
449,condition1,2,juede_contrastive,19,觉得,4590,29,juede,NA,NA,NA,juede,non-belief,1,constrained
449,condition1,3,yiwei_unclear,106,以为,7500,31,yiwei,NA,NA,NA,yiwei,contra,1,unconstrained
449,condition1,3,yiwei_contrastive,7,以为,5317,33,yiwei,NA,NA,NA,yiwei,contra,1,constrained
449,condition1,3,yiwei_unclear,105,以为,4924,34,yiwei,NA,NA,NA,yiwei,contra,1,unconstrained
449,condition1,3,juede_unclear,120,以为,3706,36,juede,NA,NA,NA,yiwei,contra,0,unconstrained
449,condition1,3,juede_contrastive,11,觉得,9064,37,juede,NA,NA,NA,juede,non-belief,1,constrained
449,condition1,3,yiwei_contrastive,6,以为,3254,38,yiwei,NA,NA,NA,yiwei,contra,1,constrained
449,condition1,3,juede_contrastive,20,以为,4264,39,juede,NA,NA,NA,yiwei,contra,0,constrained
449,condition1,3,juede_unclear,117,觉得,6022,40,juede,NA,NA,NA,juede,non-belief,1,unconstrained
449,condition1,4,yiwei_unclear,107,以为,8170,41,yiwei,NA,NA,NA,yiwei,contra,1,unconstrained
449,condition1,4,yiwei_unclear,109,以为,3880,43,yiwei,NA,NA,NA,yiwei,contra,1,unconstrained
449,condition1,4,juede_contrastive,15,觉得,5563,44,juede,NA,NA,NA,juede,non-belief,1,constrained
449,condition1,4,juede_unclear,115,觉得,8649,45,juede,NA,NA,NA,juede,non-belief,1,unconstrained
449,condition1,4,yiwei_contrastive,9,以为,33106,47,yiwei,NA,NA,NA,yiwei,contra,1,constrained
449,condition1,4,juede_contrastive,17,以为,23640,48,juede,NA,NA,NA,yiwei,contra,0,constrained
449,condition1,4,juede_unclear,118,觉得,4342,49,juede,NA,NA,NA,juede,non-belief,1,unconstrained
449,condition1,4,yiwei_contrastive,2,以为,8656,50,yiwei,NA,NA,NA,yiwei,contra,1,constrained
514,condition1,0,juede_unclear,118,感觉,12254,1,juede,NA,NA,NA,other,non-belief,0,unconstrained
514,condition1,0,yiwei_contrastive,1,以为,10682,3,yiwei,NA,NA,NA,yiwei,contra,1,constrained
514,condition1,0,yiwei_unclear,104,觉得,35361,4,yiwei,NA,NA,NA,juede,non-belief,0,unconstrained
514,condition1,0,juede_contrastive,13,以为,27216,5,juede,NA,NA,NA,yiwei,contra,0,constrained
514,condition1,0,yiwei_unclear,110,看,29671,6,yiwei,NA,NA,NA,other,non-other,0,unconstrained
514,condition1,0,juede_contrastive,12,觉得,12474,7,juede,NA,NA,NA,juede,non-belief,1,constrained
514,condition1,0,juede_unclear,116,感觉,16318,8,juede,NA,NA,NA,other,non-belief,0,unconstrained
514,condition1,0,yiwei_contrastive,3,以为,11502,9,yiwei,NA,NA,NA,yiwei,contra,1,constrained
514,condition1,1,yiwei_unclear,109,再搞,26063,12,yiwei,NA,NA,NA,other,other,0,unconstrained
514,condition1,1,juede_unclear,111,觉得,10858,13,juede,NA,NA,NA,juede,non-belief,1,unconstrained
514,condition1,1,yiwei_contrastive,4,以为,13948,14,yiwei,NA,NA,NA,yiwei,contra,1,constrained
514,condition1,1,juede_unclear,112,发现,17882,15,juede,NA,NA,NA,other,factive-other,0,unconstrained
514,condition1,1,juede_contrastive,18,看到,10931,16,juede,NA,NA,NA,other,factive-other,0,constrained
514,condition1,1,yiwei_contrastive,8,怎么,32164,17,yiwei,NA,NA,NA,other,other,0,constrained
514,condition1,1,yiwei_unclear,102,说,6166,18,yiwei,NA,NA,NA,other,non-say,0,unconstrained
514,condition1,1,juede_contrastive,19,觉得,6867,20,juede,NA,NA,NA,juede,non-belief,1,constrained
514,condition1,2,juede_contrastive,14,看,27332,21,juede,NA,NA,NA,other,non-other,0,constrained
514,condition1,2,yiwei_contrastive,6,以为,18271,22,yiwei,NA,NA,NA,yiwei,contra,1,constrained
514,condition1,2,yiwei_contrastive,2,以为,11748,23,yiwei,NA,NA,NA,yiwei,contra,1,constrained
514,condition1,2,juede_unclear,115,觉得,8117,24,juede,NA,NA,NA,juede,non-belief,1,unconstrained
514,condition1,2,yiwei_unclear,105,以为,8916,25,yiwei,NA,NA,NA,yiwei,contra,1,unconstrained
514,condition1,2,juede_unclear,119,看,11581,28,juede,NA,NA,NA,other,non-other,0,unconstrained
514,condition1,2,yiwei_unclear,101,以为,5553,29,yiwei,NA,NA,NA,yiwei,contra,1,unconstrained
514,condition1,2,juede_contrastive,16,感觉,8319,30,juede,NA,NA,NA,other,non-belief,0,constrained
514,condition1,3,yiwei_unclear,106,看到,10658,32,yiwei,NA,NA,NA,other,factive-other,0,unconstrained
514,condition1,3,yiwei_unclear,107,以为,8889,33,yiwei,NA,NA,NA,yiwei,contra,1,unconstrained
514,condition1,3,juede_contrastive,20,说,16182,34,juede,NA,NA,NA,other,non-say,0,constrained
514,condition1,3,yiwei_contrastive,10,画的,6749,35,yiwei,NA,NA,NA,other,other,0,constrained
514,condition1,3,juede_unclear,114,看,15331,36,juede,NA,NA,NA,other,non-other,0,unconstrained
514,condition1,3,yiwei_contrastive,9,看,11346,38,yiwei,NA,NA,NA,other,non-other,0,constrained
514,condition1,3,juede_contrastive,17,以为,24924,39,juede,NA,NA,NA,yiwei,contra,0,constrained
514,condition1,3,juede_unclear,113,觉得,5762,40,juede,NA,NA,NA,juede,non-belief,1,unconstrained
514,condition1,4,juede_unclear,120,觉得,6107,42,juede,NA,NA,NA,juede,non-belief,1,unconstrained
514,condition1,4,juede_contrastive,15,说,20934,43,juede,NA,NA,NA,other,non-say,0,constrained
514,condition1,4,yiwei_unclear,103,看,10618,44,yiwei,NA,NA,NA,other,non-other,0,unconstrained
514,condition1,4,yiwei_contrastive,5,觉得,10703,45,yiwei,NA,NA,NA,juede,non-belief,0,constrained
514,condition1,4,yiwei_contrastive,7,以为,16202,46,yiwei,NA,NA,NA,yiwei,contra,1,constrained
514,condition1,4,juede_contrastive,11,戴,7037,48,juede,NA,NA,NA,other,verb,0,constrained
514,condition1,4,juede_unclear,117,放,6283,49,juede,NA,NA,NA,other,verb,0,unconstrained
514,condition1,4,yiwei_unclear,108,以为,18701,50,yiwei,NA,NA,NA,yiwei,contra,1,unconstrained
515,condition1,0,yiwei_contrastive,1,说,15836,1,yiwei,NA,NA,NA,other,non-say,0,constrained
515,condition1,0,yiwei_unclear,104,看,18602,2,yiwei,NA,NA,NA,other,non-other,0,unconstrained
515,condition1,0,juede_unclear,117,放,13338,3,juede,NA,NA,NA,other,verb,0,unconstrained
515,condition1,0,juede_contrastive,13,说,16374,6,juede,NA,NA,NA,other,non-say,0,constrained
515,condition1,0,yiwei_contrastive,8,以为,36771,7,yiwei,NA,NA,NA,yiwei,contra,1,constrained
515,condition1,0,juede_contrastive,11,戴,15394,8,juede,NA,NA,NA,other,verb,0,constrained
515,condition1,0,juede_unclear,119,看,8689,9,juede,NA,NA,NA,other,non-other,0,unconstrained
515,condition1,0,yiwei_unclear,103,看到,25713,10,yiwei,NA,NA,NA,other,factive-other,0,unconstrained
515,condition1,1,juede_contrastive,17,说,14954,12,juede,NA,NA,NA,other,non-say,0,constrained
515,condition1,1,yiwei_unclear,105,以为,19738,14,yiwei,NA,NA,NA,yiwei,contra,1,unconstrained
515,condition1,1,yiwei_contrastive,5,以为,8098,15,yiwei,NA,NA,NA,yiwei,contra,1,constrained
515,condition1,1,yiwei_contrastive,2,以为,6112,16,yiwei,NA,NA,NA,yiwei,contra,1,constrained
515,condition1,1,juede_contrastive,14,觉得,22135,17,juede,NA,NA,NA,juede,non-belief,1,constrained
515,condition1,1,juede_unclear,112,发现,17034,18,juede,NA,NA,NA,other,factive-other,0,unconstrained
515,condition1,1,juede_unclear,115,认为,17084,19,juede,NA,NA,NA,other,non-belief,0,unconstrained
515,condition1,1,yiwei_unclear,108,当作,22683,20,yiwei,NA,NA,NA,other,contra,0,unconstrained
515,condition1,2,yiwei_unclear,109,以为,24307,23,yiwei,NA,NA,NA,yiwei,contra,1,unconstrained
515,condition1,2,yiwei_contrastive,4,以为,7157,24,yiwei,NA,NA,NA,yiwei,contra,1,constrained
515,condition1,2,yiwei_contrastive,9,以为,7836,25,yiwei,NA,NA,NA,yiwei,contra,1,constrained
515,condition1,2,juede_contrastive,16,觉得,18404,26,juede,NA,NA,NA,juede,non-belief,1,constrained
515,condition1,2,juede_contrastive,19,觉得,14532,27,juede,NA,NA,NA,juede,non-belief,1,constrained
515,condition1,2,juede_unclear,113,认为,6066,28,juede,NA,NA,NA,other,non-belief,0,unconstrained
515,condition1,2,juede_unclear,118,觉得,8867,29,juede,NA,NA,NA,juede,non-belief,1,unconstrained
515,condition1,2,yiwei_unclear,102,说,15827,30,yiwei,NA,NA,NA,other,non-say,0,unconstrained
515,condition1,3,juede_contrastive,15,说,15119,31,juede,NA,NA,NA,other,non-say,0,constrained
515,condition1,3,yiwei_contrastive,6,以为,10229,32,yiwei,NA,NA,NA,yiwei,contra,1,constrained
515,condition1,3,yiwei_contrastive,3,以为,11217,33,yiwei,NA,NA,NA,yiwei,contra,1,constrained
515,condition1,3,yiwei_unclear,106,以为,8487,36,yiwei,NA,NA,NA,yiwei,contra,1,unconstrained
515,condition1,3,juede_contrastive,20,说,21043,37,juede,NA,NA,NA,other,non-say,0,constrained
515,condition1,3,juede_unclear,114,认为,9451,38,juede,NA,NA,NA,other,non-belief,0,unconstrained
515,condition1,3,yiwei_unclear,107,以为,8504,39,yiwei,NA,NA,NA,yiwei,contra,1,unconstrained
515,condition1,3,juede_unclear,116,看到,14836,40,juede,NA,NA,NA,other,factive-other,0,unconstrained
515,condition1,4,juede_contrastive,12,觉得,10531,41,juede,NA,NA,NA,juede,non-belief,1,constrained
515,condition1,4,juede_unclear,111,觉得,6154,42,juede,NA,NA,NA,juede,non-belief,1,unconstrained
515,condition1,4,juede_unclear,120,感觉,10274,43,juede,NA,NA,NA,other,non-belief,0,unconstrained
515,condition1,4,juede_contrastive,18,觉得,8751,44,juede,NA,NA,NA,juede,non-belief,1,constrained
515,condition1,4,yiwei_unclear,110,以为,25775,45,yiwei,NA,NA,NA,yiwei,contra,1,unconstrained
515,condition1,4,yiwei_contrastive,7,以为,8621,47,yiwei,NA,NA,NA,yiwei,contra,1,constrained
515,condition1,4,yiwei_unclear,101,以为,4274,48,yiwei,NA,NA,NA,yiwei,contra,1,unconstrained
515,condition1,4,yiwei_contrastive,10,以为,3715,49,yiwei,NA,NA,NA,yiwei,contra,1,constrained
447,condition1,0,juede_unclear,120,害怕,68230,1,juede,NA,NA,NA,other,non-emotion,0,unconstrained
447,condition1,0,juede_unclear,116,看到,46851,2,juede,NA,NA,NA,other,factive-other,0,unconstrained
447,condition1,0,yiwei_unclear,110,猜,41700,3,yiwei,NA,NA,NA,other,non-belief,0,unconstrained
447,condition1,0,yiwei_contrastive,10,以为,23400,4,yiwei,NA,NA,NA,yiwei,contra,1,constrained
447,condition1,0,yiwei_contrastive,8,认为,75133,5,yiwei,NA,NA,NA,other,non-belief,0,constrained
447,condition1,0,yiwei_unclear,106,以为,33816,7,yiwei,NA,NA,NA,yiwei,contra,1,unconstrained
447,condition1,0,juede_contrastive,12,觉得,25717,8,juede,NA,NA,NA,juede,non-belief,1,constrained
447,condition1,0,juede_contrastive,14,觉得,30050,9,juede,NA,NA,NA,juede,non-belief,1,constrained
447,condition1,1,juede_unclear,115,觉得,21517,11,juede,NA,NA,NA,juede,non-belief,1,unconstrained
447,condition1,1,juede_contrastive,17,发觉,24884,12,juede,NA,NA,NA,other,factive-other,0,constrained
447,condition1,1,juede_contrastive,18,害怕,25633,13,juede,NA,NA,NA,other,non-emotion,0,constrained
447,condition1,1,yiwei_unclear,107,以为,17567,16,yiwei,NA,NA,NA,yiwei,contra,1,unconstrained
447,condition1,1,yiwei_unclear,108,觉得,36500,17,yiwei,NA,NA,NA,juede,non-belief,0,unconstrained
447,condition1,1,yiwei_contrastive,2,以为,30100,18,yiwei,NA,NA,NA,yiwei,contra,1,constrained
447,condition1,1,yiwei_contrastive,9,以为,25571,19,yiwei,NA,NA,NA,yiwei,contra,1,constrained
447,condition1,1,juede_unclear,113,觉得,18012,20,juede,NA,NA,NA,juede,non-belief,1,unconstrained
447,condition1,2,juede_unclear,112,觉得,20934,21,juede,NA,NA,NA,juede,non-belief,1,unconstrained
447,condition1,2,juede_unclear,119,看,21650,23,juede,NA,NA,NA,other,non-other,0,unconstrained
447,condition1,2,juede_contrastive,20,认为,21568,24,juede,NA,NA,NA,other,non-belief,0,constrained
447,condition1,2,yiwei_unclear,109,以为,35767,26,yiwei,NA,NA,NA,yiwei,contra,1,unconstrained
447,condition1,2,juede_contrastive,11,戴,22816,27,juede,NA,NA,NA,other,verb,0,constrained
447,condition1,2,yiwei_contrastive,4,以为,21417,28,yiwei,NA,NA,NA,yiwei,contra,1,constrained
447,condition1,2,yiwei_unclear,101,以为,16434,29,yiwei,NA,NA,NA,yiwei,contra,1,unconstrained
447,condition1,2,yiwei_contrastive,1,以为,18900,30,yiwei,NA,NA,NA,yiwei,contra,1,constrained
447,condition1,3,yiwei_contrastive,6,以为,9717,33,yiwei,NA,NA,NA,yiwei,contra,1,constrained
447,condition1,3,juede_unclear,111,觉得,11740,34,juede,NA,NA,NA,juede,non-belief,1,unconstrained
447,condition1,3,yiwei_unclear,102,以为,21226,35,yiwei,NA,NA,NA,yiwei,contra,1,unconstrained
447,condition1,3,juede_unclear,117,放,24334,36,juede,NA,NA,NA,other,verb,0,unconstrained
447,condition1,3,yiwei_contrastive,7,以为,33983,37,yiwei,NA,NA,NA,yiwei,contra,1,constrained
447,condition1,3,juede_contrastive,16,觉得,15300,38,juede,NA,NA,NA,juede,non-belief,1,constrained
447,condition1,3,juede_contrastive,13,觉得,12684,39,juede,NA,NA,NA,juede,non-belief,1,constrained
447,condition1,3,yiwei_unclear,105,以为,39516,40,yiwei,NA,NA,NA,yiwei,contra,1,unconstrained
447,condition1,4,juede_contrastive,19,觉得,15417,41,juede,NA,NA,NA,juede,non-belief,1,constrained
447,condition1,4,yiwei_unclear,104,认为,29784,42,yiwei,NA,NA,NA,other,non-belief,0,unconstrained
447,condition1,4,juede_contrastive,15,看,20850,43,juede,NA,NA,NA,other,non-other,0,constrained
447,condition1,4,yiwei_contrastive,3,觉得,22000,45,yiwei,NA,NA,NA,juede,non-belief,0,constrained
447,condition1,4,yiwei_unclear,103,以为,18666,46,yiwei,NA,NA,NA,yiwei,contra,1,unconstrained
447,condition1,4,juede_unclear,114,担心,26551,47,juede,NA,NA,NA,other,non-emotion,0,unconstrained
447,condition1,4,yiwei_contrastive,5,以为,16199,48,yiwei,NA,NA,NA,yiwei,contra,1,constrained
447,condition1,4,juede_unclear,118,觉得,16168,49,juede,NA,NA,NA,juede,non-belief,1,unconstrained
497,condition1,0,yiwei_unclear,101,说,50356,1,yiwei,NA,NA,NA,other,non-say,0,unconstrained
497,condition1,0,juede_contrastive,18,说,158048,3,juede,NA,NA,NA,other,non-say,0,constrained
497,condition1,0,yiwei_contrastive,2,看,30912,4,yiwei,NA,NA,NA,other,non-other,0,constrained
497,condition1,0,juede_unclear,112,觉得,28482,5,juede,NA,NA,NA,juede,non-belief,1,unconstrained
497,condition1,0,juede_contrastive,16,发现,31912,6,juede,NA,NA,NA,other,factive-other,0,constrained
497,condition1,0,yiwei_contrastive,4,认为,22049,8,yiwei,NA,NA,NA,other,non-belief,0,constrained
497,condition1,0,juede_unclear,119,觉得,24211,9,juede,NA,NA,NA,juede,non-belief,1,unconstrained
497,condition1,0,yiwei_unclear,104,看,31418,10,yiwei,NA,NA,NA,other,non-other,0,unconstrained
497,condition1,1,yiwei_contrastive,6,以为,19701,11,yiwei,NA,NA,NA,yiwei,contra,1,constrained
497,condition1,1,yiwei_unclear,105,想念,42718,12,yiwei,NA,NA,NA,other,other,0,unconstrained
497,condition1,1,juede_contrastive,17,问,104595,13,juede,NA,NA,NA,other,non-say,0,constrained
497,condition1,1,juede_unclear,111,感觉,20833,15,juede,NA,NA,NA,other,non-belief,0,unconstrained
497,condition1,1,yiwei_unclear,106,害怕,91105,16,yiwei,NA,NA,NA,other,non-emotion,0,unconstrained
497,condition1,1,yiwei_contrastive,8,发觉,38875,17,yiwei,NA,NA,NA,other,factive-other,0,constrained
497,condition1,1,juede_contrastive,13,发现,94089,18,juede,NA,NA,NA,other,factive-other,0,constrained
497,condition1,1,juede_unclear,117,找,76205,20,juede,NA,NA,NA,other,verb,0,unconstrained
497,condition1,2,juede_contrastive,12,觉得,30413,21,juede,NA,NA,NA,juede,non-belief,1,constrained
497,condition1,2,juede_contrastive,14,看,192495,22,juede,NA,NA,NA,other,non-other,0,constrained
497,condition1,2,juede_unclear,116,感觉,626547,24,juede,NA,NA,NA,other,non-belief,0,unconstrained
497,condition1,2,yiwei_contrastive,7,以为,17154,25,yiwei,NA,NA,NA,yiwei,contra,1,constrained
497,condition1,2,juede_unclear,114,看,53217,26,juede,NA,NA,NA,other,non-other,0,unconstrained
497,condition1,2,yiwei_contrastive,5,以为,17124,27,yiwei,NA,NA,NA,yiwei,contra,1,constrained
497,condition1,2,yiwei_unclear,102,说,30552,28,yiwei,NA,NA,NA,other,non-say,0,unconstrained
497,condition1,2,yiwei_unclear,108,明白,50838,29,yiwei,NA,NA,NA,other,factive-belief,0,unconstrained
497,condition1,3,juede_unclear,113,觉得,17122,31,juede,NA,NA,NA,juede,non-belief,1,unconstrained
497,condition1,3,yiwei_contrastive,9,认为,45778,32,yiwei,NA,NA,NA,other,non-belief,0,constrained
497,condition1,3,yiwei_unclear,109,以为,53416,33,yiwei,NA,NA,NA,yiwei,contra,1,unconstrained
497,condition1,3,juede_contrastive,15,看,19819,35,juede,NA,NA,NA,other,non-other,0,constrained
497,condition1,3,juede_unclear,120,想,33398,36,juede,NA,NA,NA,other,non-belief,0,unconstrained
497,condition1,3,yiwei_unclear,110,感觉,52201,38,yiwei,NA,NA,NA,other,non-belief,0,unconstrained
497,condition1,3,juede_contrastive,20,说,39472,39,juede,NA,NA,NA,other,non-say,0,constrained
497,condition1,3,yiwei_contrastive,10,以为,32951,40,yiwei,NA,NA,NA,yiwei,contra,1,constrained
497,condition1,4,yiwei_unclear,107,以为,59555,41,yiwei,NA,NA,NA,yiwei,contra,1,unconstrained
497,condition1,4,yiwei_contrastive,1,认为,23580,43,yiwei,NA,NA,NA,other,non-belief,0,constrained
497,condition1,4,yiwei_contrastive,3,想,24015,45,yiwei,NA,NA,NA,other,non-belief,0,constrained
497,condition1,4,yiwei_unclear,103,看,14742,46,yiwei,NA,NA,NA,other,non-other,0,unconstrained
497,condition1,4,juede_contrastive,19,觉得,18022,47,juede,NA,NA,NA,juede,non-belief,1,constrained
497,condition1,4,juede_unclear,118,看,33100,48,juede,NA,NA,NA,other,non-other,0,unconstrained
497,condition1,4,juede_contrastive,11,戴,16890,49,juede,NA,NA,NA,other,verb,0,constrained
497,condition1,4,juede_unclear,115,感觉,34398,50,juede,NA,NA,NA,other,non-belief,0,unconstrained
472,condition1,0,yiwei_contrastive,8,找了,74685,1,yiwei,NA,NA,NA,other,verb,0,constrained
472,condition1,0,juede_unclear,114,看,82573,2,juede,NA,NA,NA,other,non-other,0,unconstrained
472,condition1,0,juede_contrastive,16,看,122954,3,juede,NA,NA,NA,other,non-other,0,constrained
472,condition1,0,yiwei_unclear,110,以为,91335,4,yiwei,NA,NA,NA,yiwei,contra,1,unconstrained
472,condition1,0,juede_contrastive,18,说,28931,5,juede,NA,NA,NA,other,non-say,0,constrained
472,condition1,0,yiwei_contrastive,1,猜,61162,6,yiwei,NA,NA,NA,other,non-belief,0,constrained
472,condition1,0,juede_unclear,111,看到,69930,7,juede,NA,NA,NA,other,factive-other,0,unconstrained
472,condition1,0,yiwei_unclear,107,不说,32673,8,yiwei,NA,NA,NA,other,non-say,0,unconstrained
472,condition1,1,juede_contrastive,13,说,22466,11,juede,NA,NA,NA,other,non-say,0,constrained
472,condition1,1,juede_contrastive,19,说,87432,12,juede,NA,NA,NA,other,non-say,0,constrained
472,condition1,1,yiwei_contrastive,3,猜,79528,13,yiwei,NA,NA,NA,other,non-belief,0,constrained
472,condition1,1,yiwei_contrastive,9,猜,45578,14,yiwei,NA,NA,NA,other,non-belief,0,constrained
472,condition1,1,yiwei_unclear,101,以为,59165,16,yiwei,NA,NA,NA,yiwei,contra,1,unconstrained
472,condition1,1,yiwei_unclear,103,以为,30898,18,yiwei,NA,NA,NA,yiwei,contra,1,unconstrained
472,condition1,1,juede_unclear,112,觉得,44090,19,juede,NA,NA,NA,juede,non-belief,1,unconstrained
472,condition1,1,juede_unclear,119,觉得,43952,20,juede,NA,NA,NA,juede,non-belief,1,unconstrained
472,condition1,2,yiwei_contrastive,2,以为,20927,22,yiwei,NA,NA,NA,yiwei,contra,1,constrained
472,condition1,2,juede_contrastive,11,戴,149631,23,juede,NA,NA,NA,other,verb,0,constrained
472,condition1,2,yiwei_unclear,104,看到,43532,24,yiwei,NA,NA,NA,other,factive-other,0,unconstrained
472,condition1,2,yiwei_unclear,109,跟着,40928,25,yiwei,NA,NA,NA,other,other,0,unconstrained
472,condition1,2,yiwei_contrastive,5,以为,16196,26,yiwei,NA,NA,NA,yiwei,contra,1,constrained
472,condition1,2,juede_unclear,117,放,34959,27,juede,NA,NA,NA,other,verb,0,unconstrained
472,condition1,2,juede_contrastive,15,看到,69893,28,juede,NA,NA,NA,other,factive-other,0,constrained
472,condition1,2,juede_unclear,115,觉得,19106,29,juede,NA,NA,NA,juede,non-belief,1,unconstrained
472,condition1,3,juede_unclear,118,觉得,29516,31,juede,NA,NA,NA,juede,non-belief,1,unconstrained
472,condition1,3,juede_contrastive,20,看到,54194,32,juede,NA,NA,NA,other,factive-other,0,constrained
472,condition1,3,juede_unclear,113,觉得,14757,33,juede,NA,NA,NA,juede,non-belief,1,unconstrained
472,condition1,3,yiwei_contrastive,7,以为,12203,36,yiwei,NA,NA,NA,yiwei,contra,1,constrained
472,condition1,3,yiwei_contrastive,4,以为,10766,37,yiwei,NA,NA,NA,yiwei,contra,1,constrained
472,condition1,3,yiwei_unclear,106,以为,17580,38,yiwei,NA,NA,NA,yiwei,contra,1,unconstrained
472,condition1,3,juede_contrastive,14,觉得,26762,39,juede,NA,NA,NA,juede,non-belief,1,constrained
472,condition1,3,yiwei_unclear,108,觉得,24553,40,yiwei,NA,NA,NA,juede,non-belief,0,unconstrained
472,condition1,4,juede_contrastive,12,觉得,46451,41,juede,NA,NA,NA,juede,non-belief,1,constrained
472,condition1,4,yiwei_contrastive,10,以为,44606,42,yiwei,NA,NA,NA,yiwei,contra,1,constrained
472,condition1,4,juede_unclear,120,觉得,14529,43,juede,NA,NA,NA,juede,non-belief,1,unconstrained
472,condition1,4,yiwei_contrastive,6,以为,9095,44,yiwei,NA,NA,NA,yiwei,contra,1,constrained
472,condition1,4,juede_unclear,116,觉得,30570,46,juede,NA,NA,NA,juede,non-belief,1,unconstrained
472,condition1,4,juede_contrastive,17,觉得,38189,47,juede,NA,NA,NA,juede,non-belief,1,constrained
472,condition1,4,yiwei_unclear,105,以为,18500,49,yiwei,NA,NA,NA,yiwei,contra,1,unconstrained
472,condition1,4,yiwei_unclear,102,觉得,54024,50,yiwei,NA,NA,NA,juede,non-belief,0,unconstrained
430,condition1,0,juede_unclear,117,放,128401,1,juede,NA,NA,NA,other,verb,0,unconstrained
430,condition1,0,juede_contrastive,13,猜,155415,2,juede,NA,NA,NA,other,non-belief,0,constrained
430,condition1,0,yiwei_unclear,101,认为,30758,4,yiwei,NA,NA,NA,other,non-belief,0,unconstrained
430,condition1,0,juede_unclear,119,觉得,65614,6,juede,NA,NA,NA,juede,non-belief,1,unconstrained
430,condition1,0,juede_contrastive,12,看,40262,7,juede,NA,NA,NA,other,non-other,0,constrained
430,condition1,0,yiwei_contrastive,8,画画,145149,8,yiwei,NA,NA,NA,other,verb,0,constrained
430,condition1,0,yiwei_unclear,105,以为,17726,9,yiwei,NA,NA,NA,yiwei,contra,1,unconstrained
430,condition1,0,yiwei_contrastive,10,以为,12030,10,yiwei,NA,NA,NA,yiwei,contra,1,constrained
430,condition1,1,yiwei_contrastive,5,以为,10732,11,yiwei,NA,NA,NA,yiwei,contra,1,constrained
430,condition1,1,yiwei_unclear,102,认为,40492,12,yiwei,NA,NA,NA,other,non-belief,0,unconstrained
430,condition1,1,juede_contrastive,14,认为,35728,13,juede,NA,NA,NA,other,non-belief,0,constrained
430,condition1,1,yiwei_contrastive,6,以为,18093,14,yiwei,NA,NA,NA,yiwei,contra,1,constrained
430,condition1,1,yiwei_unclear,108,认为,25099,16,yiwei,NA,NA,NA,other,non-belief,0,unconstrained
430,condition1,1,juede_unclear,111,觉得,17211,18,juede,NA,NA,NA,juede,non-belief,1,unconstrained
430,condition1,1,juede_unclear,118,感觉,30302,19,juede,NA,NA,NA,other,non-belief,0,unconstrained
430,condition1,1,juede_contrastive,11,戴,18216,20,juede,NA,NA,NA,other,verb,0,constrained
430,condition1,2,juede_unclear,116,种了,124057,21,juede,NA,NA,NA,other,other,0,unconstrained
430,condition1,2,yiwei_contrastive,1,以为,20262,22,yiwei,NA,NA,NA,yiwei,contra,1,constrained
430,condition1,2,yiwei_contrastive,9,以为,16363,24,yiwei,NA,NA,NA,yiwei,contra,1,constrained
430,condition1,2,juede_contrastive,16,认为,39643,25,juede,NA,NA,NA,other,non-belief,0,constrained
430,condition1,2,juede_unclear,120,觉得,14370,26,juede,NA,NA,NA,juede,non-belief,1,unconstrained
430,condition1,2,yiwei_unclear,109,喊,57462,28,yiwei,NA,NA,NA,other,non-say,0,unconstrained
430,condition1,2,juede_contrastive,19,认为,21444,29,juede,NA,NA,NA,other,non-belief,0,constrained
430,condition1,2,yiwei_unclear,107,喊,19252,30,yiwei,NA,NA,NA,other,non-say,0,unconstrained
430,condition1,3,juede_contrastive,15,认为,45921,31,juede,NA,NA,NA,other,non-belief,0,constrained
430,condition1,3,juede_contrastive,17,认为,22476,32,juede,NA,NA,NA,other,non-belief,0,constrained
430,condition1,3,yiwei_unclear,106,怕,18857,33,yiwei,NA,NA,NA,other,non-emotion,0,unconstrained
430,condition1,3,yiwei_contrastive,2,以为,26500,35,yiwei,NA,NA,NA,yiwei,contra,1,constrained
430,condition1,3,yiwei_contrastive,3,以为,24950,36,yiwei,NA,NA,NA,yiwei,contra,1,constrained
430,condition1,3,juede_unclear,112,觉得,18212,37,juede,NA,NA,NA,juede,non-belief,1,unconstrained
430,condition1,3,yiwei_unclear,110,以为,30602,38,yiwei,NA,NA,NA,yiwei,contra,1,unconstrained
430,condition1,3,juede_unclear,113,认为,15073,40,juede,NA,NA,NA,other,non-belief,0,unconstrained
430,condition1,4,yiwei_contrastive,4,瞎说,60489,41,yiwei,NA,NA,NA,other,non-say,0,constrained
430,condition1,4,juede_contrastive,20,认为,18418,43,juede,NA,NA,NA,other,non-belief,0,constrained
430,condition1,4,yiwei_contrastive,7,觉得,28561,44,yiwei,NA,NA,NA,juede,non-belief,0,constrained
430,condition1,4,yiwei_unclear,104,凶,38336,45,yiwei,NA,NA,NA,other,non-say,0,unconstrained
430,condition1,4,juede_contrastive,18,认为,28095,46,juede,NA,NA,NA,other,non-belief,0,constrained
430,condition1,4,juede_unclear,115,看,13283,47,juede,NA,NA,NA,other,non-other,0,unconstrained
430,condition1,4,juede_unclear,114,觉得,26540,48,juede,NA,NA,NA,juede,non-belief,1,unconstrained
430,condition1,4,yiwei_unclear,103,觉得,53550,50,yiwei,NA,NA,NA,juede,non-belief,0,unconstrained
450,condition1,0,juede_unclear,117,放,22320,1,juede,NA,NA,NA,other,verb,0,unconstrained
450,condition1,0,juede_contrastive,13,拿,42889,2,juede,NA,NA,NA,other,verb,0,constrained
450,condition1,0,juede_unclear,115,说,9735,3,juede,NA,NA,NA,other,non-say,0,unconstrained
450,condition1,0,yiwei_unclear,110,说,24421,4,yiwei,NA,NA,NA,other,non-say,0,unconstrained
450,condition1,0,yiwei_contrastive,10,以为,12169,5,yiwei,NA,NA,NA,yiwei,contra,1,constrained
450,condition1,0,yiwei_contrastive,1,以为,15885,6,yiwei,NA,NA,NA,yiwei,contra,1,constrained
450,condition1,0,yiwei_unclear,104,告诉,26987,8,yiwei,NA,NA,NA,other,non-say,0,unconstrained
450,condition1,0,juede_contrastive,17,说,11137,10,juede,NA,NA,NA,other,non-say,0,constrained
450,condition1,1,yiwei_contrastive,8,以为,11033,11,yiwei,NA,NA,NA,yiwei,contra,1,constrained
450,condition1,1,yiwei_unclear,106,贴,9734,12,yiwei,NA,NA,NA,other,verb,0,unconstrained
450,condition1,1,juede_unclear,120,站在,17053,13,juede,NA,NA,NA,other,other,0,unconstrained
450,condition1,1,juede_unclear,113,觉得,11103,14,juede,NA,NA,NA,juede,non-belief,1,unconstrained
450,condition1,1,juede_contrastive,15,说,10668,16,juede,NA,NA,NA,other,non-say,0,constrained
450,condition1,1,juede_contrastive,18,说,15253,17,juede,NA,NA,NA,other,non-say,0,constrained
450,condition1,1,yiwei_unclear,108,培养,16370,18,yiwei,NA,NA,NA,other,verb,0,unconstrained
450,condition1,1,yiwei_contrastive,9,觉得,9484,19,yiwei,NA,NA,NA,juede,non-belief,0,constrained
450,condition1,2,yiwei_unclear,103,以为,16254,21,yiwei,NA,NA,NA,yiwei,contra,1,unconstrained
450,condition1,2,juede_unclear,116,想,12284,22,juede,NA,NA,NA,other,non-belief,0,unconstrained
450,condition1,2,juede_unclear,119,看,7086,23,juede,NA,NA,NA,other,non-other,0,unconstrained
450,condition1,2,yiwei_contrastive,7,以为,9068,24,yiwei,NA,NA,NA,yiwei,contra,1,constrained
450,condition1,2,juede_contrastive,14,说,11986,25,juede,NA,NA,NA,other,non-say,0,constrained
450,condition1,2,juede_contrastive,11,觉得,20387,27,juede,NA,NA,NA,juede,non-belief,1,constrained
450,condition1,2,yiwei_contrastive,4,知道,11152,28,yiwei,NA,NA,NA,other,factive-belief,0,constrained
450,condition1,2,yiwei_unclear,101,觉得,9668,29,yiwei,NA,NA,NA,juede,non-belief,0,unconstrained
450,condition1,3,yiwei_contrastive,5,以为,15669,32,yiwei,NA,NA,NA,yiwei,contra,1,constrained
450,condition1,3,juede_unclear,118,觉得,8304,34,juede,NA,NA,NA,juede,non-belief,1,unconstrained
450,condition1,3,yiwei_unclear,102,说,6200,35,yiwei,NA,NA,NA,other,non-say,0,unconstrained
450,condition1,3,yiwei_unclear,105,以为,12934,36,yiwei,NA,NA,NA,yiwei,contra,1,unconstrained
450,condition1,3,yiwei_contrastive,6,以为,21789,37,yiwei,NA,NA,NA,yiwei,contra,1,constrained
450,condition1,3,juede_contrastive,19,觉得,8985,38,juede,NA,NA,NA,juede,non-belief,1,constrained
450,condition1,3,juede_unclear,112,觉得,12002,39,juede,NA,NA,NA,juede,non-belief,1,unconstrained
450,condition1,3,juede_contrastive,16,想,19653,40,juede,NA,NA,NA,other,non-belief,0,constrained
450,condition1,4,yiwei_contrastive,2,以为,9569,41,yiwei,NA,NA,NA,yiwei,contra,1,constrained
450,condition1,4,yiwei_unclear,107,说,5484,43,yiwei,NA,NA,NA,other,non-say,0,unconstrained
450,condition1,4,juede_contrastive,20,说,12170,45,juede,NA,NA,NA,other,non-say,0,constrained
450,condition1,4,juede_unclear,114,看,6200,46,juede,NA,NA,NA,other,non-other,0,unconstrained
450,condition1,4,yiwei_unclear,109,催,13987,47,yiwei,NA,NA,NA,other,other,0,unconstrained
450,condition1,4,juede_unclear,111,觉得,4600,48,juede,NA,NA,NA,juede,non-belief,1,unconstrained
450,condition1,4,juede_contrastive,12,觉得,7512,49,juede,NA,NA,NA,juede,non-belief,1,constrained
450,condition1,4,yiwei_contrastive,3,想,8052,50,yiwei,NA,NA,NA,other,non-belief,0,constrained
516,condition1,0,juede_contrastive,16,感觉,50977,2,juede,NA,NA,NA,other,non-belief,0,constrained
516,condition1,0,yiwei_unclear,106,怕,36447,4,yiwei,NA,NA,NA,other,non-emotion,0,unconstrained
516,condition1,0,yiwei_contrastive,8,看,42716,5,yiwei,NA,NA,NA,other,non-other,0,constrained
516,condition1,0,yiwei_contrastive,4,看,102366,6,yiwei,NA,NA,NA,other,non-other,0,constrained
516,condition1,0,yiwei_unclear,107,说,13135,7,yiwei,NA,NA,NA,other,non-say,0,unconstrained
516,condition1,0,juede_unclear,115,记得,24638,8,juede,NA,NA,NA,other,factive-other,0,unconstrained
516,condition1,0,juede_unclear,111,觉得,15559,9,juede,NA,NA,NA,juede,non-belief,1,unconstrained
516,condition1,0,juede_contrastive,13,说,16297,10,juede,NA,NA,NA,other,non-say,0,constrained
516,condition1,1,yiwei_unclear,108,承担,37410,12,yiwei,NA,NA,NA,other,verb,0,unconstrained
516,condition1,1,juede_contrastive,19,是,17066,13,juede,NA,NA,NA,other,other,0,constrained
516,condition1,1,yiwei_unclear,101,说,13347,14,yiwei,NA,NA,NA,other,non-say,0,unconstrained
516,condition1,1,juede_contrastive,18,说,15994,15,juede,NA,NA,NA,other,non-say,0,constrained
516,condition1,1,juede_unclear,118,猜,9555,16,juede,NA,NA,NA,other,non-belief,0,unconstrained
516,condition1,1,yiwei_contrastive,2,猜,26537,17,yiwei,NA,NA,NA,other,non-belief,0,constrained
516,condition1,1,yiwei_contrastive,3,以为,29960,19,yiwei,NA,NA,NA,yiwei,contra,1,constrained
516,condition1,1,juede_unclear,116,想,15100,20,juede,NA,NA,NA,other,non-belief,0,unconstrained
516,condition1,2,juede_contrastive,14,觉得,14610,21,juede,NA,NA,NA,juede,non-belief,1,constrained
516,condition1,2,yiwei_unclear,104,说,23881,23,yiwei,NA,NA,NA,other,non-say,0,unconstrained
516,condition1,2,juede_contrastive,15,看,8281,24,juede,NA,NA,NA,other,non-other,0,constrained
516,condition1,2,juede_unclear,119,看,12561,25,juede,NA,NA,NA,other,non-other,0,unconstrained
516,condition1,2,yiwei_contrastive,10,以为,12890,26,yiwei,NA,NA,NA,yiwei,contra,1,constrained
516,condition1,2,juede_unclear,114,看,14477,27,juede,NA,NA,NA,other,non-other,0,unconstrained
516,condition1,2,yiwei_unclear,109,说,26837,28,yiwei,NA,NA,NA,other,non-say,0,unconstrained
516,condition1,2,yiwei_contrastive,1,说,7229,29,yiwei,NA,NA,NA,other,non-say,0,constrained
516,condition1,3,juede_unclear,112,感觉,15732,31,juede,NA,NA,NA,other,non-belief,0,unconstrained
516,condition1,3,yiwei_contrastive,7,手,28956,32,yiwei,NA,NA,NA,other,other,0,constrained
516,condition1,3,juede_contrastive,11,看,14225,33,juede,NA,NA,NA,other,non-other,0,constrained
516,condition1,3,juede_contrastive,12,觉得,9433,35,juede,NA,NA,NA,juede,non-belief,1,constrained
516,condition1,3,yiwei_unclear,110,说,36575,36,yiwei,NA,NA,NA,other,non-say,0,unconstrained
516,condition1,3,juede_unclear,117,放,13844,37,juede,NA,NA,NA,other,verb,0,unconstrained
516,condition1,3,yiwei_contrastive,6,以为,12624,38,yiwei,NA,NA,NA,yiwei,contra,1,constrained
516,condition1,3,yiwei_unclear,103,看,9703,39,yiwei,NA,NA,NA,other,non-other,0,unconstrained
516,condition1,4,yiwei_contrastive,9,以为,21563,41,yiwei,NA,NA,NA,yiwei,contra,1,constrained
516,condition1,4,yiwei_unclear,102,说,12992,42,yiwei,NA,NA,NA,other,non-say,0,unconstrained
516,condition1,4,juede_unclear,120,想,10222,45,juede,NA,NA,NA,other,non-belief,0,unconstrained
516,condition1,4,yiwei_contrastive,5,以为,7080,46,yiwei,NA,NA,NA,yiwei,contra,1,constrained
516,condition1,4,juede_contrastive,17,以为,20405,47,juede,NA,NA,NA,yiwei,contra,0,constrained
516,condition1,4,juede_contrastive,20,看,13461,48,juede,NA,NA,NA,other,non-other,0,constrained
516,condition1,4,juede_unclear,113,觉得,8771,49,juede,NA,NA,NA,juede,non-belief,1,unconstrained
516,condition1,4,yiwei_unclear,105,以为,16784,50,yiwei,NA,NA,NA,yiwei,contra,1,unconstrained
443,condition1,0,yiwei_unclear,101,说,45179,1,yiwei,NA,NA,NA,other,non-say,0,unconstrained
443,condition1,0,yiwei_contrastive,4,以为,17470,3,yiwei,NA,NA,NA,yiwei,contra,1,constrained
443,condition1,0,yiwei_unclear,108,以为,31021,4,yiwei,NA,NA,NA,yiwei,contra,1,unconstrained
443,condition1,0,juede_unclear,113,觉得,7076,5,juede,NA,NA,NA,juede,non-belief,1,unconstrained
443,condition1,0,juede_contrastive,13,指的,8337,7,juede,NA,NA,NA,other,other,0,constrained
443,condition1,0,yiwei_contrastive,7,以为,11667,8,yiwei,NA,NA,NA,yiwei,contra,1,constrained
443,condition1,0,juede_unclear,112,觉得,172248,9,juede,NA,NA,NA,juede,non-belief,1,unconstrained
443,condition1,0,juede_contrastive,15,知道,18264,10,juede,NA,NA,NA,other,factive-belief,0,constrained
443,condition1,1,juede_unclear,118,觉得,25062,11,juede,NA,NA,NA,juede,non-belief,1,unconstrained
443,condition1,1,juede_contrastive,17,说的,25973,12,juede,NA,NA,NA,other,non-say,0,constrained
443,condition1,1,juede_contrastive,16,说的,17695,14,juede,NA,NA,NA,other,non-say,0,constrained
443,condition1,1,yiwei_contrastive,1,以为,9640,15,yiwei,NA,NA,NA,yiwei,contra,1,constrained
443,condition1,1,yiwei_contrastive,5,以为,6892,17,yiwei,NA,NA,NA,yiwei,contra,1,constrained
443,condition1,1,yiwei_unclear,104,以为,10453,18,yiwei,NA,NA,NA,yiwei,contra,1,unconstrained
443,condition1,1,juede_unclear,111,觉得,135988,19,juede,NA,NA,NA,juede,non-belief,1,unconstrained
443,condition1,1,yiwei_unclear,109,跟着,238340,20,yiwei,NA,NA,NA,other,other,0,unconstrained
443,condition1,2,yiwei_unclear,102,说,16832,21,yiwei,NA,NA,NA,other,non-say,0,unconstrained
443,condition1,2,juede_contrastive,12,觉得,7333,22,juede,NA,NA,NA,juede,non-belief,1,constrained
443,condition1,2,yiwei_unclear,107,以为,8026,23,yiwei,NA,NA,NA,yiwei,contra,1,unconstrained
443,condition1,2,yiwei_contrastive,9,以为,6960,24,yiwei,NA,NA,NA,yiwei,contra,1,constrained
443,condition1,2,juede_unclear,114,觉得,11543,25,juede,NA,NA,NA,juede,non-belief,1,unconstrained
443,condition1,2,juede_contrastive,11,戴,16517,26,juede,NA,NA,NA,other,verb,0,constrained
443,condition1,2,juede_unclear,120,以为,35159,28,juede,NA,NA,NA,yiwei,contra,0,unconstrained
443,condition1,2,yiwei_contrastive,6,以为,4186,30,yiwei,NA,NA,NA,yiwei,contra,1,constrained
443,condition1,3,yiwei_unclear,103,以为,10047,32,yiwei,NA,NA,NA,yiwei,contra,1,unconstrained
443,condition1,3,juede_unclear,119,觉得,6878,33,juede,NA,NA,NA,juede,non-belief,1,unconstrained
443,condition1,3,yiwei_contrastive,3,以为,7953,34,yiwei,NA,NA,NA,yiwei,contra,1,constrained
443,condition1,3,yiwei_unclear,106,看到,15573,35,yiwei,NA,NA,NA,other,factive-other,0,unconstrained
443,condition1,3,yiwei_contrastive,8,以为,71609,36,yiwei,NA,NA,NA,yiwei,contra,1,constrained
443,condition1,3,juede_unclear,116,觉得,8861,37,juede,NA,NA,NA,juede,non-belief,1,unconstrained
443,condition1,3,juede_contrastive,14,觉得,12957,38,juede,NA,NA,NA,juede,non-belief,1,constrained
443,condition1,3,juede_contrastive,20,觉得,15037,39,juede,NA,NA,NA,juede,non-belief,1,constrained
443,condition1,4,juede_contrastive,18,觉得,10635,41,juede,NA,NA,NA,juede,non-belief,1,constrained
443,condition1,4,juede_unclear,117,知道,21735,42,juede,NA,NA,NA,other,factive-belief,0,unconstrained
443,condition1,4,yiwei_unclear,110,以为,19549,44,yiwei,NA,NA,NA,yiwei,contra,1,unconstrained
443,condition1,4,juede_unclear,115,说过,23203,45,juede,NA,NA,NA,other,non-say,0,unconstrained
443,condition1,4,yiwei_contrastive,10,以为,5856,46,yiwei,NA,NA,NA,yiwei,contra,1,constrained
443,condition1,4,yiwei_contrastive,2,以为,9636,48,yiwei,NA,NA,NA,yiwei,contra,1,constrained
443,condition1,4,yiwei_unclear,105,以为,13997,49,yiwei,NA,NA,NA,yiwei,contra,1,unconstrained
443,condition1,4,juede_contrastive,19,看起来,64236,50,juede,NA,NA,NA,other,other,0,constrained
442,condition1,0,yiwei_unclear,104,看,49335,1,yiwei,NA,NA,NA,other,non-other,0,unconstrained
442,condition1,0,juede_unclear,115,觉得,41592,2,juede,NA,NA,NA,juede,non-belief,1,unconstrained
442,condition1,0,yiwei_unclear,106,留,102000,3,yiwei,NA,NA,NA,other,other,0,unconstrained
442,condition1,0,yiwei_contrastive,3,以为,35128,6,yiwei,NA,NA,NA,yiwei,contra,1,constrained
442,condition1,0,juede_contrastive,12,觉得,35512,7,juede,NA,NA,NA,juede,non-belief,1,constrained
442,condition1,0,yiwei_contrastive,5,以为,159808,8,yiwei,NA,NA,NA,yiwei,contra,1,constrained
442,condition1,0,juede_contrastive,17,知道,73464,9,juede,NA,NA,NA,other,factive-belief,0,constrained
442,condition1,0,juede_unclear,114,怕,18607,10,juede,NA,NA,NA,other,non-emotion,0,unconstrained
442,condition1,1,yiwei_contrastive,9,以为,20375,11,yiwei,NA,NA,NA,yiwei,contra,1,constrained
442,condition1,1,yiwei_unclear,108,养它,72889,12,yiwei,NA,NA,NA,other,other,0,unconstrained
442,condition1,1,juede_contrastive,16,刚开的,52552,13,juede,NA,NA,NA,other,other,0,constrained
442,condition1,1,juede_unclear,117,把它放,46328,14,juede,NA,NA,NA,other,other,0,unconstrained
442,condition1,1,juede_unclear,119,觉得,45263,15,juede,NA,NA,NA,juede,non-belief,1,unconstrained
442,condition1,1,yiwei_unclear,102,说,25968,17,yiwei,NA,NA,NA,other,non-say,0,unconstrained
442,condition1,1,yiwei_contrastive,8,找,55616,18,yiwei,NA,NA,NA,other,verb,0,constrained
442,condition1,1,juede_contrastive,18,知道,66536,19,juede,NA,NA,NA,other,factive-belief,0,constrained
442,condition1,2,yiwei_contrastive,1,以为,24575,21,yiwei,NA,NA,NA,yiwei,contra,1,constrained
442,condition1,2,yiwei_unclear,110,以为,30408,22,yiwei,NA,NA,NA,yiwei,contra,1,unconstrained
442,condition1,2,juede_unclear,116,想,46343,23,juede,NA,NA,NA,other,non-belief,0,unconstrained
442,condition1,2,juede_contrastive,15,知道,20984,24,juede,NA,NA,NA,other,factive-belief,0,constrained
442,condition1,2,juede_contrastive,20,知道,20224,25,juede,NA,NA,NA,other,factive-belief,0,constrained
442,condition1,2,yiwei_unclear,105,想,45064,26,yiwei,NA,NA,NA,other,non-belief,0,unconstrained
442,condition1,2,juede_unclear,118,觉得,36576,28,juede,NA,NA,NA,juede,non-belief,1,unconstrained
442,condition1,2,yiwei_contrastive,6,以为,15456,29,yiwei,NA,NA,NA,yiwei,contra,1,constrained
442,condition1,3,juede_unclear,111,知道,20464,31,juede,NA,NA,NA,other,factive-belief,0,unconstrained
442,condition1,3,yiwei_unclear,107,以为,20400,33,yiwei,NA,NA,NA,yiwei,contra,1,unconstrained
442,condition1,3,juede_contrastive,13,觉得,32409,34,juede,NA,NA,NA,juede,non-belief,1,constrained
442,condition1,3,yiwei_unclear,103,以为,19303,35,yiwei,NA,NA,NA,yiwei,contra,1,unconstrained
442,condition1,3,yiwei_contrastive,10,以为,14143,36,yiwei,NA,NA,NA,yiwei,contra,1,constrained
442,condition1,3,yiwei_contrastive,4,以为,27200,37,yiwei,NA,NA,NA,yiwei,contra,1,constrained
442,condition1,3,juede_contrastive,14,觉得,23584,38,juede,NA,NA,NA,juede,non-belief,1,constrained
442,condition1,3,juede_unclear,112,觉得,22248,39,juede,NA,NA,NA,juede,non-belief,1,unconstrained
442,condition1,4,yiwei_unclear,101,以为,20720,41,yiwei,NA,NA,NA,yiwei,contra,1,unconstrained
442,condition1,4,yiwei_contrastive,2,以为,15944,43,yiwei,NA,NA,NA,yiwei,contra,1,constrained
442,condition1,4,yiwei_contrastive,7,以为,23144,44,yiwei,NA,NA,NA,yiwei,contra,1,constrained
442,condition1,4,juede_unclear,113,觉得,19088,45,juede,NA,NA,NA,juede,non-belief,1,unconstrained
442,condition1,4,juede_contrastive,11,戴,18760,46,juede,NA,NA,NA,other,verb,0,constrained
442,condition1,4,yiwei_unclear,109,以为,57928,47,yiwei,NA,NA,NA,yiwei,contra,1,unconstrained
442,condition1,4,juede_contrastive,19,觉得,21840,48,juede,NA,NA,NA,juede,non-belief,1,constrained
442,condition1,4,juede_unclear,120,以为,12512,50,juede,NA,NA,NA,yiwei,contra,0,unconstrained
426,condition1,0,juede_unclear,114,帮,63920,1,juede,NA,NA,NA,other,verb,0,unconstrained
426,condition1,0,yiwei_unclear,102,说,19791,2,yiwei,NA,NA,NA,other,non-say,0,unconstrained
426,condition1,0,yiwei_contrastive,6,这个,15990,3,yiwei,NA,NA,NA,other,other,0,constrained
426,condition1,0,juede_contrastive,17,回答,44617,4,juede,NA,NA,NA,other,non-say,0,constrained
426,condition1,0,juede_contrastive,19,做的,34132,5,juede,NA,NA,NA,other,other,0,constrained
426,condition1,0,yiwei_contrastive,7,猜,10874,6,yiwei,NA,NA,NA,other,non-belief,0,constrained
426,condition1,0,juede_unclear,112,觉得,34988,9,juede,NA,NA,NA,juede,non-belief,1,unconstrained
426,condition1,0,yiwei_unclear,103,以为,14481,10,yiwei,NA,NA,NA,yiwei,contra,1,unconstrained
426,condition1,1,juede_contrastive,13,说,24548,11,juede,NA,NA,NA,other,non-say,0,constrained
426,condition1,1,yiwei_contrastive,9,觉得,20630,12,yiwei,NA,NA,NA,juede,non-belief,0,constrained
426,condition1,1,yiwei_unclear,106,剩,12526,13,yiwei,NA,NA,NA,other,other,0,unconstrained
426,condition1,1,juede_unclear,118,觉得,15644,14,juede,NA,NA,NA,juede,non-belief,1,unconstrained
426,condition1,1,yiwei_unclear,104,看到,20737,15,yiwei,NA,NA,NA,other,factive-other,0,unconstrained
426,condition1,1,juede_contrastive,16,觉得,24383,16,juede,NA,NA,NA,juede,non-belief,1,constrained
426,condition1,1,yiwei_contrastive,2,以为,13395,18,yiwei,NA,NA,NA,yiwei,contra,1,constrained
426,condition1,1,juede_unclear,111,觉得,8880,19,juede,NA,NA,NA,juede,non-belief,1,unconstrained
426,condition1,2,yiwei_unclear,105,以为,18855,21,yiwei,NA,NA,NA,yiwei,contra,1,unconstrained
426,condition1,2,yiwei_contrastive,1,以为,16919,22,yiwei,NA,NA,NA,yiwei,contra,1,constrained
426,condition1,2,yiwei_contrastive,10,指的,15885,23,yiwei,NA,NA,NA,other,other,0,constrained
426,condition1,2,juede_contrastive,20,说,8196,25,juede,NA,NA,NA,other,non-say,0,constrained
426,condition1,2,juede_contrastive,15,说,22748,26,juede,NA,NA,NA,other,non-say,0,constrained
426,condition1,2,juede_unclear,113,觉得,7268,28,juede,NA,NA,NA,juede,non-belief,1,unconstrained
426,condition1,2,yiwei_unclear,101,以为,4394,29,yiwei,NA,NA,NA,yiwei,contra,1,unconstrained
426,condition1,2,juede_unclear,117,看,4028,30,juede,NA,NA,NA,other,non-other,0,unconstrained
426,condition1,3,juede_contrastive,18,说,12135,31,juede,NA,NA,NA,other,non-say,0,constrained
426,condition1,3,yiwei_unclear,108,觉得,10597,32,yiwei,NA,NA,NA,juede,non-belief,0,unconstrained
426,condition1,3,juede_unclear,119,觉得,17954,33,juede,NA,NA,NA,juede,non-belief,1,unconstrained
426,condition1,3,yiwei_unclear,109,要,17100,35,yiwei,NA,NA,NA,other,desire,0,unconstrained
426,condition1,3,juede_contrastive,14,觉得,8505,36,juede,NA,NA,NA,juede,non-belief,1,constrained
426,condition1,3,yiwei_contrastive,8,这里,17737,38,yiwei,NA,NA,NA,other,other,0,constrained
426,condition1,3,juede_unclear,116,估计,12060,39,juede,NA,NA,NA,other,other,0,unconstrained
426,condition1,3,yiwei_contrastive,4,以为,15577,40,yiwei,NA,NA,NA,yiwei,contra,1,constrained
426,condition1,4,juede_contrastive,11,肯定,7283,41,juede,NA,NA,NA,other,other,0,constrained
426,condition1,4,juede_unclear,115,觉得,8586,42,juede,NA,NA,NA,juede,non-belief,1,unconstrained
426,condition1,4,yiwei_unclear,107,说,4604,44,yiwei,NA,NA,NA,other,non-say,0,unconstrained
426,condition1,4,yiwei_contrastive,3,以为,9095,46,yiwei,NA,NA,NA,yiwei,contra,1,constrained
426,condition1,4,yiwei_contrastive,5,以为,12728,47,yiwei,NA,NA,NA,yiwei,contra,1,constrained
426,condition1,4,juede_contrastive,12,觉得,6015,48,juede,NA,NA,NA,juede,non-belief,1,constrained
426,condition1,4,yiwei_unclear,110,以为,16536,49,yiwei,NA,NA,NA,yiwei,contra,1,unconstrained
426,condition1,4,juede_unclear,120,觉得,8618,50,juede,NA,NA,NA,juede,non-belief,1,unconstrained
507,condition1,0,yiwei_unclear,101,回来说,30856,3,yiwei,NA,NA,NA,other,non-say,0,unconstrained
507,condition1,0,yiwei_unclear,110,以为,20467,4,yiwei,NA,NA,NA,yiwei,contra,1,unconstrained
507,condition1,0,yiwei_contrastive,1,原来以为,16850,5,yiwei,NA,NA,NA,yiwei,contra,1,constrained
507,condition1,0,juede_contrastive,17,说,14422,6,juede,NA,NA,NA,other,non-say,0,constrained
507,condition1,0,yiwei_contrastive,4,以为,18987,7,yiwei,NA,NA,NA,yiwei,contra,1,constrained
507,condition1,0,juede_contrastive,13,猜,17395,8,juede,NA,NA,NA,other,non-belief,0,constrained
507,condition1,0,juede_unclear,116,想,14305,9,juede,NA,NA,NA,other,non-belief,0,unconstrained
507,condition1,0,juede_unclear,119,看,6903,10,juede,NA,NA,NA,other,non-other,0,unconstrained
507,condition1,1,juede_contrastive,18,看到,28015,12,juede,NA,NA,NA,other,factive-other,0,constrained
507,condition1,1,yiwei_contrastive,3,以为,15263,13,yiwei,NA,NA,NA,yiwei,contra,1,constrained
507,condition1,1,yiwei_contrastive,5,觉得,18136,14,yiwei,NA,NA,NA,juede,non-belief,0,constrained
507,condition1,1,yiwei_unclear,102,说,13621,15,yiwei,NA,NA,NA,other,non-say,0,unconstrained
507,condition1,1,juede_contrastive,20,看,17615,16,juede,NA,NA,NA,other,non-other,0,constrained
507,condition1,1,yiwei_unclear,105,猜,15828,18,yiwei,NA,NA,NA,other,non-belief,0,unconstrained
507,condition1,1,juede_unclear,111,觉得,4230,19,juede,NA,NA,NA,juede,non-belief,1,unconstrained
507,condition1,1,juede_unclear,113,认为,7673,20,juede,NA,NA,NA,other,non-belief,0,unconstrained
507,condition1,2,juede_unclear,114,害怕,8351,21,juede,NA,NA,NA,other,non-emotion,0,unconstrained
507,condition1,2,juede_contrastive,14,猜,12418,24,juede,NA,NA,NA,other,non-belief,0,constrained
507,condition1,2,juede_contrastive,11,戴,7904,25,juede,NA,NA,NA,other,verb,0,constrained
507,condition1,2,yiwei_contrastive,2,以为,9410,26,yiwei,NA,NA,NA,yiwei,contra,1,constrained
507,condition1,2,yiwei_unclear,109,赶,14467,27,yiwei,NA,NA,NA,other,other,0,unconstrained
507,condition1,2,yiwei_unclear,104,看到,13042,28,yiwei,NA,NA,NA,other,factive-other,0,unconstrained
507,condition1,2,yiwei_contrastive,6,以为,10404,29,yiwei,NA,NA,NA,yiwei,contra,1,constrained
507,condition1,2,juede_unclear,118,感觉,10153,30,juede,NA,NA,NA,other,non-belief,0,unconstrained
507,condition1,3,juede_contrastive,15,看,5459,31,juede,NA,NA,NA,other,non-other,0,constrained
507,condition1,3,yiwei_unclear,106,看到,9702,32,yiwei,NA,NA,NA,other,factive-other,0,unconstrained
507,condition1,3,yiwei_unclear,107,以为,7292,33,yiwei,NA,NA,NA,yiwei,contra,1,unconstrained
507,condition1,3,juede_contrastive,16,觉得,10721,35,juede,NA,NA,NA,juede,non-belief,1,constrained
507,condition1,3,yiwei_contrastive,10,以为,7922,36,yiwei,NA,NA,NA,yiwei,contra,1,constrained
507,condition1,3,juede_unclear,117,看,6251,37,juede,NA,NA,NA,other,non-other,0,unconstrained
507,condition1,3,juede_unclear,120,觉得,9863,39,juede,NA,NA,NA,juede,non-belief,1,unconstrained
507,condition1,3,yiwei_contrastive,7,听说,11164,40,yiwei,NA,NA,NA,other,non-say,0,constrained
507,condition1,4,yiwei_unclear,108,感觉,12319,41,yiwei,NA,NA,NA,other,non-belief,0,unconstrained
507,condition1,4,yiwei_unclear,103,想,5948,42,yiwei,NA,NA,NA,other,non-belief,0,unconstrained
507,condition1,4,juede_unclear,115,觉得,6420,44,juede,NA,NA,NA,juede,non-belief,1,unconstrained
507,condition1,4,juede_contrastive,19,感觉,6210,46,juede,NA,NA,NA,other,non-belief,0,constrained
507,condition1,4,yiwei_contrastive,8,以为,19629,47,yiwei,NA,NA,NA,yiwei,contra,1,constrained
507,condition1,4,yiwei_contrastive,9,以为,29363,48,yiwei,NA,NA,NA,yiwei,contra,1,constrained
507,condition1,4,juede_contrastive,12,感觉,8876,49,juede,NA,NA,NA,other,non-belief,0,constrained
507,condition1,4,juede_unclear,112,感觉,12033,50,juede,NA,NA,NA,other,non-belief,0,unconstrained
475,condition1,0,yiwei_contrastive,5,猜,12985,1,yiwei,NA,NA,NA,other,non-belief,0,constrained
475,condition1,0,juede_unclear,111,觉得,12769,3,juede,NA,NA,NA,juede,non-belief,1,unconstrained
475,condition1,0,juede_unclear,113,认为,33055,4,juede,NA,NA,NA,other,non-belief,0,unconstrained
475,condition1,0,yiwei_unclear,106,以为,16970,5,yiwei,NA,NA,NA,yiwei,contra,1,unconstrained
475,condition1,0,yiwei_contrastive,6,觉得,16837,6,yiwei,NA,NA,NA,juede,non-belief,0,constrained
475,condition1,0,juede_contrastive,17,认为,20224,7,juede,NA,NA,NA,other,non-belief,0,constrained
475,condition1,0,yiwei_unclear,109,觉得,22503,8,yiwei,NA,NA,NA,juede,non-belief,0,unconstrained
475,condition1,0,juede_contrastive,15,看到,23287,9,juede,NA,NA,NA,other,factive-other,0,constrained
475,condition1,1,yiwei_unclear,102,看见,20261,11,yiwei,NA,NA,NA,other,factive-other,0,unconstrained
475,condition1,1,yiwei_contrastive,10,猜,11735,12,yiwei,NA,NA,NA,other,non-belief,0,constrained
475,condition1,1,yiwei_unclear,107,说,44458,13,yiwei,NA,NA,NA,other,non-say,0,unconstrained
475,condition1,1,juede_contrastive,16,觉得,35510,14,juede,NA,NA,NA,juede,non-belief,1,constrained
475,condition1,1,juede_unclear,120,以为,24154,15,juede,NA,NA,NA,yiwei,contra,0,unconstrained
475,condition1,1,juede_unclear,117,以为,39311,16,juede,NA,NA,NA,yiwei,contra,0,unconstrained
475,condition1,1,juede_contrastive,18,说,12086,18,juede,NA,NA,NA,other,non-say,0,constrained
475,condition1,1,yiwei_contrastive,3,以为,28237,20,yiwei,NA,NA,NA,yiwei,contra,1,constrained
475,condition1,2,yiwei_unclear,101,以为,13268,22,yiwei,NA,NA,NA,yiwei,contra,1,unconstrained
475,condition1,2,juede_unclear,118,觉得,30609,23,juede,NA,NA,NA,juede,non-belief,1,unconstrained
475,condition1,2,yiwei_contrastive,1,说,17902,24,yiwei,NA,NA,NA,other,non-say,0,constrained
475,condition1,2,juede_contrastive,13,觉得,19605,25,juede,NA,NA,NA,juede,non-belief,1,constrained
475,condition1,2,juede_unclear,119,说,13769,27,juede,NA,NA,NA,other,non-say,0,unconstrained
475,condition1,2,yiwei_unclear,104,以为,69284,28,yiwei,NA,NA,NA,yiwei,contra,1,unconstrained
475,condition1,2,juede_contrastive,14,认为,34419,29,juede,NA,NA,NA,other,non-belief,0,constrained
475,condition1,2,yiwei_contrastive,9,以为,80229,30,yiwei,NA,NA,NA,yiwei,contra,1,constrained
475,condition1,3,yiwei_contrastive,7,以为,12171,32,yiwei,NA,NA,NA,yiwei,contra,1,constrained
475,condition1,3,yiwei_unclear,110,以为,17552,34,yiwei,NA,NA,NA,yiwei,contra,1,unconstrained
475,condition1,3,juede_unclear,116,觉得,14287,35,juede,NA,NA,NA,juede,non-belief,1,unconstrained
475,condition1,3,juede_contrastive,20,猜,18085,36,juede,NA,NA,NA,other,non-belief,0,constrained
475,condition1,3,yiwei_unclear,105,以为,12569,37,yiwei,NA,NA,NA,yiwei,contra,1,unconstrained
475,condition1,3,juede_contrastive,12,觉得,11747,38,juede,NA,NA,NA,juede,non-belief,1,constrained
475,condition1,3,juede_unclear,115,觉得,24988,39,juede,NA,NA,NA,juede,non-belief,1,unconstrained
475,condition1,3,yiwei_contrastive,4,以为,18851,40,yiwei,NA,NA,NA,yiwei,contra,1,constrained
475,condition1,4,juede_unclear,114,觉得,14352,41,juede,NA,NA,NA,juede,non-belief,1,unconstrained
475,condition1,4,yiwei_contrastive,2,以为,17471,42,yiwei,NA,NA,NA,yiwei,contra,1,constrained
475,condition1,4,juede_unclear,112,觉得,13050,43,juede,NA,NA,NA,juede,non-belief,1,unconstrained
475,condition1,4,juede_contrastive,19,觉得,18802,45,juede,NA,NA,NA,juede,non-belief,1,constrained
475,condition1,4,yiwei_unclear,103,以为,9552,47,yiwei,NA,NA,NA,yiwei,contra,1,unconstrained
475,condition1,4,yiwei_unclear,108,觉得,15069,48,yiwei,NA,NA,NA,juede,non-belief,0,unconstrained
475,condition1,4,yiwei_contrastive,8,觉得,17361,49,yiwei,NA,NA,NA,juede,non-belief,0,constrained
475,condition1,4,juede_contrastive,11,觉得,27621,50,juede,NA,NA,NA,juede,non-belief,1,constrained
444,condition1,0,yiwei_contrastive,1,当,153071,1,yiwei,NA,NA,NA,other,contra,0,constrained
444,condition1,0,juede_contrastive,12,看,92935,2,juede,NA,NA,NA,other,non-other,0,constrained
444,condition1,0,yiwei_contrastive,10,当,25579,3,yiwei,NA,NA,NA,other,contra,0,constrained
444,condition1,0,juede_unclear,118,看,21157,4,juede,NA,NA,NA,other,non-other,0,unconstrained
444,condition1,0,juede_unclear,112,看,120401,5,juede,NA,NA,NA,other,non-other,0,unconstrained
444,condition1,0,yiwei_unclear,101,以为,58547,6,yiwei,NA,NA,NA,yiwei,contra,1,unconstrained
444,condition1,0,yiwei_unclear,104,看,36083,9,yiwei,NA,NA,NA,other,non-other,0,unconstrained
444,condition1,0,juede_contrastive,18,发现,25105,10,juede,NA,NA,NA,other,factive-other,0,constrained
444,condition1,1,juede_contrastive,16,看,21126,11,juede,NA,NA,NA,other,non-other,0,constrained
444,condition1,1,yiwei_contrastive,6,当,25233,13,yiwei,NA,NA,NA,other,contra,0,constrained
444,condition1,1,juede_unclear,111,来,28424,14,juede,NA,NA,NA,other,other,0,unconstrained
444,condition1,1,juede_contrastive,19,感觉,170957,15,juede,NA,NA,NA,other,non-belief,0,constrained
444,condition1,1,yiwei_unclear,107,当,28468,16,yiwei,NA,NA,NA,other,contra,0,unconstrained
444,condition1,1,yiwei_contrastive,4,以为,31593,17,yiwei,NA,NA,NA,yiwei,contra,1,constrained
444,condition1,1,juede_unclear,117,看,27586,18,juede,NA,NA,NA,other,non-other,0,unconstrained
444,condition1,1,yiwei_unclear,102,当,55146,20,yiwei,NA,NA,NA,other,contra,0,unconstrained
444,condition1,2,yiwei_contrastive,9,以为,26057,21,yiwei,NA,NA,NA,yiwei,contra,1,constrained
444,condition1,2,juede_unclear,119,看,23784,22,juede,NA,NA,NA,other,non-other,0,unconstrained
444,condition1,2,juede_unclear,114,以为,59395,23,juede,NA,NA,NA,yiwei,contra,0,unconstrained
444,condition1,2,juede_contrastive,13,以为,93597,24,juede,NA,NA,NA,yiwei,contra,0,constrained
444,condition1,2,juede_contrastive,20,说,67417,25,juede,NA,NA,NA,other,non-say,0,constrained
444,condition1,2,yiwei_unclear,110,以为,31662,27,yiwei,NA,NA,NA,yiwei,contra,1,unconstrained
444,condition1,2,yiwei_unclear,106,怕,76089,28,yiwei,NA,NA,NA,other,non-emotion,0,unconstrained
444,condition1,2,yiwei_contrastive,5,以为,13400,29,yiwei,NA,NA,NA,yiwei,contra,1,constrained
444,condition1,3,yiwei_unclear,109,怕,45894,31,yiwei,NA,NA,NA,other,non-emotion,0,unconstrained
444,condition1,3,yiwei_contrastive,8,以为,33051,32,yiwei,NA,NA,NA,yiwei,contra,1,constrained
444,condition1,3,yiwei_unclear,108,觉得,42758,34,yiwei,NA,NA,NA,juede,non-belief,0,unconstrained
444,condition1,3,juede_unclear,115,认为,29895,35,juede,NA,NA,NA,other,non-belief,0,unconstrained
444,condition1,3,juede_contrastive,11,觉得,52137,36,juede,NA,NA,NA,juede,non-belief,1,constrained
444,condition1,3,yiwei_contrastive,3,以为,12204,38,yiwei,NA,NA,NA,yiwei,contra,1,constrained
444,condition1,3,juede_contrastive,14,认为,25134,39,juede,NA,NA,NA,other,non-belief,0,constrained
444,condition1,3,juede_unclear,113,觉得,23560,40,juede,NA,NA,NA,juede,non-belief,1,unconstrained
444,condition1,4,yiwei_unclear,105,觉得,38247,41,yiwei,NA,NA,NA,juede,non-belief,0,unconstrained
444,condition1,4,juede_unclear,120,怕,21380,42,juede,NA,NA,NA,other,non-emotion,0,unconstrained
444,condition1,4,yiwei_contrastive,2,看,13333,43,yiwei,NA,NA,NA,other,non-other,0,constrained
444,condition1,4,yiwei_unclear,103,以为,35219,45,yiwei,NA,NA,NA,yiwei,contra,1,unconstrained
444,condition1,4,juede_unclear,116,看,49027,46,juede,NA,NA,NA,other,non-other,0,unconstrained
444,condition1,4,juede_contrastive,17,说,35068,47,juede,NA,NA,NA,other,non-say,0,constrained
444,condition1,4,yiwei_contrastive,7,当,24957,48,yiwei,NA,NA,NA,other,contra,0,constrained
444,condition1,4,juede_contrastive,15,说,38583,49,juede,NA,NA,NA,other,non-say,0,constrained
425,condition1,0,yiwei_contrastive,3,以为,51770,1,yiwei,NA,NA,NA,yiwei,contra,1,constrained
425,condition1,0,juede_contrastive,18,的,76692,2,juede,NA,NA,NA,other,other,0,constrained
425,condition1,0,juede_unclear,119,看,38353,3,juede,NA,NA,NA,other,non-other,0,unconstrained
425,condition1,0,yiwei_unclear,109,赶,28402,4,yiwei,NA,NA,NA,other,other,0,unconstrained
425,condition1,0,juede_unclear,118,怕,28292,5,juede,NA,NA,NA,other,non-emotion,0,unconstrained
425,condition1,0,yiwei_unclear,108,负起,91869,7,yiwei,NA,NA,NA,other,other,0,unconstrained
425,condition1,0,yiwei_contrastive,2,以为,22592,9,yiwei,NA,NA,NA,yiwei,contra,1,constrained
425,condition1,0,juede_contrastive,16,觉得,41620,10,juede,NA,NA,NA,juede,non-belief,1,constrained
425,condition1,1,yiwei_unclear,104,以为,23683,11,yiwei,NA,NA,NA,yiwei,contra,1,unconstrained
425,condition1,1,juede_unclear,114,看,65142,12,juede,NA,NA,NA,other,non-other,0,unconstrained
425,condition1,1,juede_unclear,111,觉得,14310,15,juede,NA,NA,NA,juede,non-belief,1,unconstrained
425,condition1,1,yiwei_contrastive,9,认为,14380,16,yiwei,NA,NA,NA,other,non-belief,0,constrained
425,condition1,1,yiwei_unclear,101,以为,11428,17,yiwei,NA,NA,NA,yiwei,contra,1,unconstrained
425,condition1,1,juede_contrastive,15,看,24697,18,juede,NA,NA,NA,other,non-other,0,constrained
425,condition1,1,yiwei_contrastive,7,以为,24835,19,yiwei,NA,NA,NA,yiwei,contra,1,constrained
425,condition1,1,juede_contrastive,17,认为,23491,20,juede,NA,NA,NA,other,non-belief,0,constrained
425,condition1,2,juede_unclear,120,徘徊,93336,21,juede,NA,NA,NA,other,verb,0,unconstrained
425,condition1,2,yiwei_unclear,105,以为,19798,22,yiwei,NA,NA,NA,yiwei,contra,1,unconstrained
425,condition1,2,juede_contrastive,20,猜,53670,24,juede,NA,NA,NA,other,non-belief,0,constrained
425,condition1,2,yiwei_unclear,103,以为,8331,25,yiwei,NA,NA,NA,yiwei,contra,1,unconstrained
425,condition1,2,juede_unclear,115,觉得,11093,26,juede,NA,NA,NA,juede,non-belief,1,unconstrained
425,condition1,2,yiwei_contrastive,10,以为,8699,27,yiwei,NA,NA,NA,yiwei,contra,1,constrained
425,condition1,2,juede_contrastive,14,说,21005,29,juede,NA,NA,NA,other,non-say,0,constrained
425,condition1,2,yiwei_contrastive,1,以为,10780,30,yiwei,NA,NA,NA,yiwei,contra,1,constrained
425,condition1,3,juede_unclear,116,觉得,32747,32,juede,NA,NA,NA,juede,non-belief,1,unconstrained
425,condition1,3,yiwei_contrastive,8,看,18618,33,yiwei,NA,NA,NA,other,non-other,0,constrained
425,condition1,3,juede_unclear,112,真的,27700,34,juede,NA,NA,NA,other,other,0,unconstrained
425,condition1,3,juede_contrastive,11,戴,65353,35,juede,NA,NA,NA,other,verb,0,constrained
425,condition1,3,yiwei_unclear,102,觉得,31779,36,yiwei,NA,NA,NA,juede,non-belief,0,unconstrained
425,condition1,3,juede_contrastive,12,认为,11895,38,juede,NA,NA,NA,other,non-belief,0,constrained
425,condition1,3,yiwei_unclear,110,以为,22387,39,yiwei,NA,NA,NA,yiwei,contra,1,unconstrained
425,condition1,3,yiwei_contrastive,6,以为,7336,40,yiwei,NA,NA,NA,yiwei,contra,1,constrained
425,condition1,4,yiwei_contrastive,5,以为,12156,41,yiwei,NA,NA,NA,yiwei,contra,1,constrained
425,condition1,4,juede_contrastive,13,认为,13388,42,juede,NA,NA,NA,other,non-belief,0,constrained
425,condition1,4,juede_contrastive,19,觉得,9230,43,juede,NA,NA,NA,juede,non-belief,1,constrained
425,condition1,4,juede_unclear,113,觉得,10510,44,juede,NA,NA,NA,juede,non-belief,1,unconstrained
425,condition1,4,yiwei_unclear,106,觉得,14522,45,yiwei,NA,NA,NA,juede,non-belief,0,unconstrained
425,condition1,4,juede_unclear,117,看,120169,46,juede,NA,NA,NA,other,non-other,0,unconstrained
425,condition1,4,yiwei_unclear,107,以为,42762,49,yiwei,NA,NA,NA,yiwei,contra,1,unconstrained
425,condition1,4,yiwei_contrastive,4,以为,27802,50,yiwei,NA,NA,NA,yiwei,contra,1,constrained
478,condition1,0,juede_contrastive,14,不,175718,1,juede,NA,NA,NA,other,other,0,constrained
478,condition1,0,juede_contrastive,17,知道,78892,2,juede,NA,NA,NA,other,factive-belief,0,constrained
478,condition1,0,juede_unclear,111,觉得,48650,3,juede,NA,NA,NA,juede,non-belief,1,unconstrained
478,condition1,0,juede_unclear,118,觉得,41880,4,juede,NA,NA,NA,juede,non-belief,1,unconstrained
478,condition1,0,yiwei_unclear,108,发现,63499,5,yiwei,NA,NA,NA,other,factive-other,0,unconstrained
478,condition1,0,yiwei_contrastive,5,以为,64925,7,yiwei,NA,NA,NA,yiwei,contra,1,constrained
478,condition1,0,yiwei_unclear,109,带,100641,9,yiwei,NA,NA,NA,other,other,0,unconstrained
478,condition1,0,yiwei_contrastive,4,以为,26918,10,yiwei,NA,NA,NA,yiwei,contra,1,constrained
478,condition1,1,yiwei_unclear,107,认为,14611,11,yiwei,NA,NA,NA,other,non-belief,0,unconstrained
478,condition1,1,juede_unclear,117,看看,23700,14,juede,NA,NA,NA,other,other,0,unconstrained
478,condition1,1,yiwei_contrastive,6,以为,13165,15,yiwei,NA,NA,NA,yiwei,contra,1,constrained
478,condition1,1,juede_contrastive,13,知道,59990,16,juede,NA,NA,NA,other,factive-belief,0,constrained
478,condition1,1,juede_unclear,120,假装,29733,17,juede,NA,NA,NA,other,contra,0,unconstrained
478,condition1,1,yiwei_contrastive,3,以为,13903,18,yiwei,NA,NA,NA,yiwei,contra,1,constrained
478,condition1,1,juede_contrastive,11,确实,15608,19,juede,NA,NA,NA,other,other,0,constrained
478,condition1,1,yiwei_unclear,103,以为,21167,20,yiwei,NA,NA,NA,yiwei,contra,1,unconstrained
478,condition1,2,juede_contrastive,15,看,48113,21,juede,NA,NA,NA,other,non-other,0,constrained
478,condition1,2,yiwei_contrastive,8,以为,30794,22,yiwei,NA,NA,NA,yiwei,contra,1,constrained
478,condition1,2,juede_unclear,112,看,68511,23,juede,NA,NA,NA,other,non-other,0,unconstrained
478,condition1,2,yiwei_unclear,105,以为,55995,25,yiwei,NA,NA,NA,yiwei,contra,1,unconstrained
478,condition1,2,yiwei_unclear,106,因为,47984,26,yiwei,NA,NA,NA,other,other,0,unconstrained
478,condition1,2,yiwei_contrastive,9,还以为,26476,27,yiwei,NA,NA,NA,yiwei,contra,1,constrained
478,condition1,2,juede_contrastive,16,看,35550,28,juede,NA,NA,NA,other,non-other,0,constrained
478,condition1,2,juede_unclear,114,看,35492,30,juede,NA,NA,NA,other,non-other,0,unconstrained
478,condition1,3,juede_contrastive,19,觉得,14783,32,juede,NA,NA,NA,juede,non-belief,1,constrained
478,condition1,3,yiwei_unclear,101,就知道,20025,33,yiwei,NA,NA,NA,other,factive-belief,0,unconstrained
478,condition1,3,juede_contrastive,12,看,21521,34,juede,NA,NA,NA,other,non-other,0,constrained
478,condition1,3,yiwei_contrastive,2,以为,41271,35,yiwei,NA,NA,NA,yiwei,contra,1,constrained
478,condition1,3,juede_unclear,115,觉得,19193,36,juede,NA,NA,NA,juede,non-belief,1,unconstrained
478,condition1,3,yiwei_contrastive,7,认为,32494,37,yiwei,NA,NA,NA,other,non-belief,0,constrained
478,condition1,3,yiwei_unclear,102,说,19222,39,yiwei,NA,NA,NA,other,non-say,0,unconstrained
478,condition1,3,juede_unclear,119,觉得,29105,40,juede,NA,NA,NA,juede,non-belief,1,unconstrained
478,condition1,4,juede_unclear,116,看到,28447,41,juede,NA,NA,NA,other,factive-other,0,unconstrained
478,condition1,4,yiwei_unclear,110,看,41133,43,yiwei,NA,NA,NA,other,non-other,0,unconstrained
478,condition1,4,juede_contrastive,20,知道,19696,45,juede,NA,NA,NA,other,factive-belief,0,constrained
478,condition1,4,juede_contrastive,18,知道,32582,46,juede,NA,NA,NA,other,factive-belief,0,constrained
478,condition1,4,juede_unclear,113,看,22192,47,juede,NA,NA,NA,other,non-other,0,unconstrained
478,condition1,4,yiwei_contrastive,1,以为,20574,48,yiwei,NA,NA,NA,yiwei,contra,1,constrained
478,condition1,4,yiwei_unclear,104,不要让,28649,49,yiwei,NA,NA,NA,other,other,0,unconstrained
478,condition1,4,yiwei_contrastive,10,以为,22184,50,yiwei,NA,NA,NA,yiwei,contra,1,constrained
422,condition1,0,juede_contrastive,11,戴,19469,1,juede,NA,NA,NA,other,verb,0,constrained
422,condition1,0,juede_unclear,111,覺得,67731,2,juede,NA,NA,NA,juede,non-belief,1,unconstrained
422,condition1,0,yiwei_contrastive,1,以為,54494,4,yiwei,NA,NA,NA,yiwei,contra,1,constrained
422,condition1,0,yiwei_unclear,102,說,49355,5,yiwei,NA,NA,NA,other,non-say,0,unconstrained
422,condition1,0,yiwei_unclear,104,以為,71768,6,yiwei,NA,NA,NA,yiwei,contra,1,unconstrained
422,condition1,0,juede_unclear,113,覺得,22355,7,juede,NA,NA,NA,juede,non-belief,1,unconstrained
422,condition1,0,yiwei_contrastive,4,以為,45890,9,yiwei,NA,NA,NA,yiwei,contra,1,constrained
422,condition1,0,juede_contrastive,14,覺得,45862,10,juede,NA,NA,NA,juede,non-belief,1,constrained
422,condition1,1,yiwei_contrastive,6,以為,25251,12,yiwei,NA,NA,NA,yiwei,contra,1,constrained
422,condition1,1,juede_contrastive,19,覺得,32377,13,juede,NA,NA,NA,juede,non-belief,1,constrained
422,condition1,1,juede_contrastive,20,猜,27824,14,juede,NA,NA,NA,other,non-belief,0,constrained
422,condition1,1,juede_unclear,118,認為,32617,15,juede,NA,NA,NA,other,non-belief,0,unconstrained
422,condition1,1,yiwei_unclear,109,以為,36779,16,yiwei,NA,NA,NA,yiwei,contra,1,unconstrained
422,condition1,1,yiwei_unclear,105,以為,31935,18,yiwei,NA,NA,NA,yiwei,contra,1,unconstrained
422,condition1,1,yiwei_contrastive,10,以為,14549,19,yiwei,NA,NA,NA,yiwei,contra,1,constrained
422,condition1,1,juede_unclear,115,覺得,55581,20,juede,NA,NA,NA,juede,non-belief,1,unconstrained
422,condition1,2,juede_contrastive,13,認為,63756,21,juede,NA,NA,NA,other,non-belief,0,constrained
422,condition1,2,juede_contrastive,16,猜,36142,22,juede,NA,NA,NA,other,non-belief,0,constrained
422,condition1,2,juede_unclear,116,猜,29557,23,juede,NA,NA,NA,other,non-belief,0,unconstrained
422,condition1,2,juede_unclear,119,覺得,45103,24,juede,NA,NA,NA,juede,non-belief,1,unconstrained
422,condition1,2,yiwei_contrastive,7,以為,36390,25,yiwei,NA,NA,NA,yiwei,contra,1,constrained
422,condition1,2,yiwei_unclear,110,以為,30674,26,yiwei,NA,NA,NA,yiwei,contra,1,unconstrained
422,condition1,2,yiwei_unclear,108,覺得,32077,27,yiwei,NA,NA,NA,juede,non-belief,0,unconstrained
422,condition1,2,yiwei_contrastive,2,以為,20422,30,yiwei,NA,NA,NA,yiwei,contra,1,constrained
422,condition1,3,juede_contrastive,17,以為,46753,31,juede,NA,NA,NA,yiwei,contra,0,constrained
422,condition1,3,yiwei_contrastive,9,以為,14497,32,yiwei,NA,NA,NA,yiwei,contra,1,constrained
422,condition1,3,juede_contrastive,12,覺得,24375,33,juede,NA,NA,NA,juede,non-belief,1,constrained
422,condition1,3,yiwei_unclear,107,以為,11107,34,yiwei,NA,NA,NA,yiwei,contra,1,unconstrained
422,condition1,3,juede_unclear,117,以為,26910,35,juede,NA,NA,NA,yiwei,contra,0,unconstrained
422,condition1,3,juede_unclear,112,覺得,37979,37,juede,NA,NA,NA,juede,non-belief,1,unconstrained
422,condition1,3,yiwei_unclear,103,以為,23625,38,yiwei,NA,NA,NA,yiwei,contra,1,unconstrained
422,condition1,3,yiwei_contrastive,5,以為,11010,39,yiwei,NA,NA,NA,yiwei,contra,1,constrained
422,condition1,4,yiwei_contrastive,8,以為,18060,41,yiwei,NA,NA,NA,yiwei,contra,1,constrained
422,condition1,4,juede_unclear,114,以為,36719,42,juede,NA,NA,NA,yiwei,contra,0,unconstrained
422,condition1,4,juede_contrastive,15,以為,44699,43,juede,NA,NA,NA,yiwei,contra,0,constrained
422,condition1,4,juede_unclear,120,以為,13290,44,juede,NA,NA,NA,yiwei,contra,0,unconstrained
422,condition1,4,juede_contrastive,18,以為,18524,45,juede,NA,NA,NA,yiwei,contra,0,constrained
422,condition1,4,yiwei_unclear,106,以為,60780,47,yiwei,NA,NA,NA,yiwei,contra,1,unconstrained
422,condition1,4,yiwei_contrastive,3,以為,22716,48,yiwei,NA,NA,NA,yiwei,contra,1,constrained
422,condition1,4,yiwei_unclear,101,以為,11970,49,yiwei,NA,NA,NA,yiwei,contra,1,unconstrained
465,condition1,0,juede_contrastive,12,觉得,30136,1,juede,NA,NA,NA,juede,non-belief,1,constrained
465,condition1,0,yiwei_contrastive,2,以为,48976,2,yiwei,NA,NA,NA,yiwei,contra,1,constrained
465,condition1,0,yiwei_unclear,109,打发,47200,3,yiwei,NA,NA,NA,other,other,0,unconstrained
465,condition1,0,juede_unclear,113,出的,15944,4,juede,NA,NA,NA,other,other,0,unconstrained
465,condition1,0,juede_contrastive,20,说的,31992,5,juede,NA,NA,NA,other,non-say,0,constrained
465,condition1,0,yiwei_unclear,106,靠,44720,6,yiwei,NA,NA,NA,other,other,0,unconstrained
465,condition1,0,yiwei_contrastive,10,画的,18864,9,yiwei,NA,NA,NA,other,other,0,constrained
465,condition1,0,juede_unclear,112,觉得,37759,10,juede,NA,NA,NA,juede,non-belief,1,unconstrained
465,condition1,1,yiwei_unclear,108,认为,22865,11,yiwei,NA,NA,NA,other,non-belief,0,unconstrained
465,condition1,1,yiwei_unclear,102,说,17415,12,yiwei,NA,NA,NA,other,non-say,0,unconstrained
465,condition1,1,yiwei_contrastive,8,这里,30401,13,yiwei,NA,NA,NA,other,other,0,constrained
465,condition1,1,juede_unclear,118,觉得,39024,14,juede,NA,NA,NA,juede,non-belief,1,unconstrained
465,condition1,1,juede_unclear,120,喜欢,26016,16,juede,NA,NA,NA,other,verb,0,unconstrained
465,condition1,1,juede_contrastive,14,看,84215,17,juede,NA,NA,NA,other,non-other,0,constrained
465,condition1,1,juede_contrastive,16,那个,21825,18,juede,NA,NA,NA,other,other,0,constrained
465,condition1,1,yiwei_contrastive,3,可,19296,20,yiwei,NA,NA,NA,other,other,0,constrained
465,condition1,2,juede_contrastive,11,你,11911,21,juede,NA,NA,NA,other,other,0,constrained
465,condition1,2,yiwei_contrastive,7,想,20913,22,yiwei,NA,NA,NA,other,non-belief,0,constrained
465,condition1,2,juede_contrastive,19,是,18424,23,juede,NA,NA,NA,other,other,0,constrained
465,condition1,2,juede_unclear,111,觉得,23681,25,juede,NA,NA,NA,juede,non-belief,1,unconstrained
465,condition1,2,yiwei_contrastive,9,以为,59616,26,yiwei,NA,NA,NA,yiwei,contra,1,constrained
465,condition1,2,yiwei_unclear,107,当,13319,27,yiwei,NA,NA,NA,other,contra,0,unconstrained
465,condition1,2,juede_unclear,116,想,55784,28,juede,NA,NA,NA,other,non-belief,0,unconstrained
465,condition1,2,yiwei_unclear,103,以为,26128,30,yiwei,NA,NA,NA,yiwei,contra,1,unconstrained
465,condition1,3,yiwei_contrastive,6,想,13439,32,yiwei,NA,NA,NA,other,non-belief,0,constrained
465,condition1,3,juede_contrastive,15,以为,39656,33,juede,NA,NA,NA,yiwei,contra,0,constrained
465,condition1,3,juede_unclear,117,放,13080,34,juede,NA,NA,NA,other,verb,0,unconstrained
465,condition1,3,yiwei_unclear,105,没有,32840,35,yiwei,NA,NA,NA,other,other,0,unconstrained
465,condition1,3,yiwei_contrastive,4,以为,22152,36,yiwei,NA,NA,NA,yiwei,contra,1,constrained
465,condition1,3,yiwei_unclear,104,看,13400,37,yiwei,NA,NA,NA,other,non-other,0,unconstrained
465,condition1,3,juede_unclear,119,觉得,16192,38,juede,NA,NA,NA,juede,non-belief,1,unconstrained
465,condition1,3,juede_contrastive,17,说,41839,40,juede,NA,NA,NA,other,non-say,0,constrained
465,condition1,4,juede_unclear,114,看,19912,41,juede,NA,NA,NA,other,non-other,0,unconstrained
465,condition1,4,yiwei_unclear,101,怪,8928,42,yiwei,NA,NA,NA,other,other,0,unconstrained
465,condition1,4,yiwei_contrastive,1,骂,17848,43,yiwei,NA,NA,NA,other,non-say,0,constrained
465,condition1,4,yiwei_contrastive,5,以为,11008,44,yiwei,NA,NA,NA,yiwei,contra,1,constrained
465,condition1,4,juede_contrastive,13,用的,16768,45,juede,NA,NA,NA,other,other,0,constrained
465,condition1,4,juede_contrastive,18,的,13712,46,juede,NA,NA,NA,other,other,0,constrained
465,condition1,4,yiwei_unclear,110,想,14648,48,yiwei,NA,NA,NA,other,non-belief,0,unconstrained
465,condition1,4,juede_unclear,115,说,18488,50,juede,NA,NA,NA,other,non-say,0,unconstrained
490,condition1,0,juede_unclear,118,觉得,33526,1,juede,NA,NA,NA,juede,non-belief,1,unconstrained
490,condition1,0,yiwei_contrastive,7,以为,21581,3,yiwei,NA,NA,NA,yiwei,contra,1,constrained
490,condition1,0,yiwei_unclear,101,以为,18574,5,yiwei,NA,NA,NA,yiwei,contra,1,unconstrained
490,condition1,0,juede_contrastive,15,觉得,19354,6,juede,NA,NA,NA,juede,non-belief,1,constrained
490,condition1,0,juede_unclear,119,觉得,16949,7,juede,NA,NA,NA,juede,non-belief,1,unconstrained
490,condition1,0,yiwei_contrastive,5,以为,21981,8,yiwei,NA,NA,NA,yiwei,contra,1,constrained
490,condition1,0,juede_contrastive,20,说,22720,9,juede,NA,NA,NA,other,non-say,0,constrained
490,condition1,0,yiwei_unclear,106,一看,63885,10,yiwei,NA,NA,NA,other,other,0,unconstrained
490,condition1,1,juede_contrastive,14,觉得,24931,11,juede,NA,NA,NA,juede,non-belief,1,constrained
490,condition1,1,juede_contrastive,16,觉得,25713,12,juede,NA,NA,NA,juede,non-belief,1,constrained
490,condition1,1,juede_unclear,115,猜,42992,14,juede,NA,NA,NA,other,non-belief,0,unconstrained
490,condition1,1,yiwei_unclear,110,以为,53896,15,yiwei,NA,NA,NA,yiwei,contra,1,unconstrained
490,condition1,1,yiwei_contrastive,8,找找，,100298,16,yiwei,NA,NA,NA,other,verb,0,constrained
490,condition1,1,yiwei_unclear,109,以为,69615,17,yiwei,NA,NA,NA,yiwei,contra,1,unconstrained
490,condition1,1,juede_unclear,117,翻翻,41804,19,juede,NA,NA,NA,other,verb,0,unconstrained
490,condition1,1,yiwei_contrastive,10,以为,11163,20,yiwei,NA,NA,NA,yiwei,contra,1,constrained
490,condition1,2,yiwei_unclear,102,觉得,50349,21,yiwei,NA,NA,NA,juede,non-belief,0,unconstrained
490,condition1,2,juede_contrastive,12,觉得,14185,22,juede,NA,NA,NA,juede,non-belief,1,constrained
490,condition1,2,yiwei_contrastive,1,以为,25175,23,yiwei,NA,NA,NA,yiwei,contra,1,constrained
490,condition1,2,yiwei_unclear,107,以为,12550,24,yiwei,NA,NA,NA,yiwei,contra,1,unconstrained
490,condition1,2,juede_unclear,114,觉得,26929,25,juede,NA,NA,NA,juede,non-belief,1,unconstrained
490,condition1,2,yiwei_contrastive,3,以为,11705,27,yiwei,NA,NA,NA,yiwei,contra,1,constrained
490,condition1,2,juede_unclear,112,觉得,27254,28,juede,NA,NA,NA,juede,non-belief,1,unconstrained
490,condition1,2,juede_contrastive,18,说,22145,29,juede,NA,NA,NA,other,non-say,0,constrained
490,condition1,3,juede_unclear,120,觉得,28468,32,juede,NA,NA,NA,juede,non-belief,1,unconstrained
490,condition1,3,yiwei_unclear,108,认为它,40583,33,yiwei,NA,NA,NA,other,non-belief,0,unconstrained
490,condition1,3,juede_contrastive,11,觉得,28496,34,juede,NA,NA,NA,juede,non-belief,1,constrained
490,condition1,3,yiwei_unclear,105,一开始以为这,55079,35,yiwei,NA,NA,NA,yiwei,contra,1,unconstrained
490,condition1,3,juede_unclear,116,遇到,46377,36,juede,NA,NA,NA,other,other,0,unconstrained
490,condition1,3,yiwei_contrastive,2,还以为,29511,37,yiwei,NA,NA,NA,yiwei,contra,1,constrained
490,condition1,3,juede_contrastive,17,觉得,28787,38,juede,NA,NA,NA,juede,non-belief,1,constrained
490,condition1,3,yiwei_contrastive,4,就记成,35250,39,yiwei,NA,NA,NA,other,other,0,constrained
490,condition1,4,juede_contrastive,19,觉得,22645,41,juede,NA,NA,NA,juede,non-belief,1,constrained
490,condition1,4,juede_unclear,111,知道,30437,42,juede,NA,NA,NA,other,factive-belief,0,unconstrained
490,condition1,4,yiwei_contrastive,9,以为,16565,44,yiwei,NA,NA,NA,yiwei,contra,1,constrained
490,condition1,4,juede_unclear,113,认为,16938,45,juede,NA,NA,NA,other,non-belief,0,unconstrained
490,condition1,4,juede_contrastive,13,说,15920,46,juede,NA,NA,NA,other,non-say,0,constrained
490,condition1,4,yiwei_contrastive,6,以为,14484,47,yiwei,NA,NA,NA,yiwei,contra,1,constrained
490,condition1,4,yiwei_unclear,104,以为,12258,48,yiwei,NA,NA,NA,yiwei,contra,1,unconstrained
490,condition1,4,yiwei_unclear,103,说,22837,50,yiwei,NA,NA,NA,other,non-say,0,unconstrained
510,condition1,0,yiwei_unclear,108,養,38325,1,yiwei,NA,NA,NA,other,other,0,unconstrained
510,condition1,0,yiwei_contrastive,7,猜,69566,2,yiwei,NA,NA,NA,other,non-belief,0,constrained
510,condition1,0,juede_contrastive,20,猜,28126,3,juede,NA,NA,NA,other,non-belief,0,constrained
510,condition1,0,yiwei_contrastive,6,猜,24422,4,yiwei,NA,NA,NA,other,non-belief,0,constrained
510,condition1,0,juede_contrastive,12,認同,289685,6,juede,NA,NA,NA,other,non-other,0,constrained
510,condition1,0,juede_unclear,116,看過,161091,8,juede,NA,NA,NA,other,other,0,unconstrained
510,condition1,0,juede_unclear,113,出,117028,9,juede,NA,NA,NA,other,other,0,unconstrained
510,condition1,0,yiwei_unclear,101,以為,34383,10,yiwei,NA,NA,NA,yiwei,contra,1,unconstrained
510,condition1,1,yiwei_contrastive,9,以為,116846,11,yiwei,NA,NA,NA,yiwei,contra,1,constrained
510,condition1,1,yiwei_unclear,106,以為,26057,12,yiwei,NA,NA,NA,yiwei,contra,1,unconstrained
510,condition1,1,juede_contrastive,13,猜到,62588,13,juede,NA,NA,NA,other,non-belief,0,constrained
510,condition1,1,yiwei_contrastive,1,以為,28611,14,yiwei,NA,NA,NA,yiwei,contra,1,constrained
510,condition1,1,juede_unclear,114,猜,32050,15,juede,NA,NA,NA,other,non-belief,0,unconstrained
510,condition1,1,yiwei_unclear,110,以為,24990,16,yiwei,NA,NA,NA,yiwei,contra,1,unconstrained
510,condition1,1,juede_unclear,111,覺得,19897,19,juede,NA,NA,NA,juede,non-belief,1,unconstrained
510,condition1,1,juede_contrastive,16,認為,44415,20,juede,NA,NA,NA,other,non-belief,0,constrained
510,condition1,2,juede_unclear,115,猜,109104,22,juede,NA,NA,NA,other,non-belief,0,unconstrained
510,condition1,2,yiwei_contrastive,10,以為,11644,23,yiwei,NA,NA,NA,yiwei,contra,1,constrained
510,condition1,2,yiwei_contrastive,4,以為,46954,24,yiwei,NA,NA,NA,yiwei,contra,1,constrained
510,condition1,2,yiwei_unclear,107,以為,59600,25,yiwei,NA,NA,NA,yiwei,contra,1,unconstrained
510,condition1,2,juede_contrastive,11,贊成,82581,26,juede,NA,NA,NA,other,non-belief,0,constrained
510,condition1,2,juede_unclear,118,認為,106448,27,juede,NA,NA,NA,other,non-belief,0,unconstrained
510,condition1,2,juede_contrastive,19,確實,18273,28,juede,NA,NA,NA,other,other,0,constrained
510,condition1,2,yiwei_unclear,105,以為,25886,30,yiwei,NA,NA,NA,yiwei,contra,1,unconstrained
510,condition1,3,juede_unclear,119,感覺,88102,31,juede,NA,NA,NA,other,non-belief,0,unconstrained
510,condition1,3,yiwei_unclear,103,以為,19825,32,yiwei,NA,NA,NA,yiwei,contra,1,unconstrained
510,condition1,3,yiwei_contrastive,5,以為,13357,33,yiwei,NA,NA,NA,yiwei,contra,1,constrained
510,condition1,3,juede_contrastive,14,猜,43655,34,juede,NA,NA,NA,other,non-belief,0,constrained
510,condition1,3,yiwei_unclear,104,以為,44179,35,yiwei,NA,NA,NA,yiwei,contra,1,unconstrained
510,condition1,3,juede_contrastive,17,以為,9712,37,juede,NA,NA,NA,yiwei,contra,0,constrained
510,condition1,3,yiwei_contrastive,3,以為,10266,39,yiwei,NA,NA,NA,yiwei,contra,1,constrained
510,condition1,3,juede_unclear,120,以為,11444,40,juede,NA,NA,NA,yiwei,contra,0,unconstrained
510,condition1,4,yiwei_contrastive,2,以為,10597,41,yiwei,NA,NA,NA,yiwei,contra,1,constrained
510,condition1,4,juede_contrastive,15,知道,93921,42,juede,NA,NA,NA,other,factive-belief,0,constrained
510,condition1,4,juede_unclear,112,認為,56277,43,juede,NA,NA,NA,other,non-belief,0,unconstrained
510,condition1,4,yiwei_unclear,102,以為,41164,44,yiwei,NA,NA,NA,yiwei,contra,1,unconstrained
510,condition1,4,yiwei_unclear,109,以為,27599,47,yiwei,NA,NA,NA,yiwei,contra,1,unconstrained
510,condition1,4,juede_contrastive,18,知道,25153,48,juede,NA,NA,NA,other,factive-belief,0,constrained
510,condition1,4,juede_unclear,117,放,90839,49,juede,NA,NA,NA,other,verb,0,unconstrained
510,condition1,4,yiwei_contrastive,8,知道,54068,50,yiwei,NA,NA,NA,other,factive-belief,0,constrained
435,condition1,0,yiwei_unclear,101,会说,45240,1,yiwei,NA,NA,NA,other,non-say,0,unconstrained
435,condition1,0,juede_unclear,118,觉得,18416,3,juede,NA,NA,NA,juede,non-belief,1,unconstrained
435,condition1,0,yiwei_unclear,103,以为,32976,5,yiwei,NA,NA,NA,yiwei,contra,1,unconstrained
435,condition1,0,yiwei_contrastive,10,以为,14584,6,yiwei,NA,NA,NA,yiwei,contra,1,constrained
435,condition1,0,juede_contrastive,17,觉得,34536,7,juede,NA,NA,NA,juede,non-belief,1,constrained
435,condition1,0,juede_unclear,113,认为,17536,8,juede,NA,NA,NA,other,non-belief,0,unconstrained
435,condition1,0,juede_contrastive,19,觉得,16392,9,juede,NA,NA,NA,juede,non-belief,1,constrained
435,condition1,0,yiwei_contrastive,9,以为,32400,10,yiwei,NA,NA,NA,yiwei,contra,1,constrained
435,condition1,1,yiwei_unclear,102,以为,27376,11,yiwei,NA,NA,NA,yiwei,contra,1,unconstrained
435,condition1,1,yiwei_unclear,106,只剩,31816,12,yiwei,NA,NA,NA,other,other,0,unconstrained
435,condition1,1,juede_contrastive,18,说,27632,13,juede,NA,NA,NA,other,non-say,0,constrained
435,condition1,1,yiwei_contrastive,8,还以为,27792,14,yiwei,NA,NA,NA,yiwei,contra,1,constrained
435,condition1,1,juede_unclear,112,想,14816,15,juede,NA,NA,NA,other,non-belief,0,unconstrained
435,condition1,1,juede_contrastive,12,觉得,14240,17,juede,NA,NA,NA,juede,non-belief,1,constrained
435,condition1,1,yiwei_contrastive,3,还以为,27216,18,yiwei,NA,NA,NA,yiwei,contra,1,constrained
435,condition1,1,juede_unclear,115,觉得,17456,20,juede,NA,NA,NA,juede,non-belief,1,unconstrained
435,condition1,2,yiwei_unclear,107,以为,13336,21,yiwei,NA,NA,NA,yiwei,contra,1,unconstrained
435,condition1,2,yiwei_contrastive,2,还以为,16224,22,yiwei,NA,NA,NA,yiwei,contra,1,constrained
435,condition1,2,yiwei_contrastive,4,以为,25456,23,yiwei,NA,NA,NA,yiwei,contra,1,constrained
435,condition1,2,juede_unclear,117,觉得,46328,24,juede,NA,NA,NA,juede,non-belief,1,unconstrained
435,condition1,2,juede_unclear,119,觉得,35224,25,juede,NA,NA,NA,juede,non-belief,1,unconstrained
435,condition1,2,juede_contrastive,13,认为,45656,26,juede,NA,NA,NA,other,non-belief,0,constrained
435,condition1,2,yiwei_unclear,109,以为,44720,28,yiwei,NA,NA,NA,yiwei,contra,1,unconstrained
435,condition1,2,juede_contrastive,14,觉得,16448,30,juede,NA,NA,NA,juede,non-belief,1,constrained
435,condition1,3,juede_unclear,120,担心,35096,31,juede,NA,NA,NA,other,non-emotion,0,unconstrained
435,condition1,3,juede_contrastive,15,知道,27264,33,juede,NA,NA,NA,other,factive-belief,0,constrained
435,condition1,3,juede_unclear,116,觉得,27520,34,juede,NA,NA,NA,juede,non-belief,1,unconstrained
435,condition1,3,yiwei_unclear,110,以为,22120,35,yiwei,NA,NA,NA,yiwei,contra,1,unconstrained
435,condition1,3,juede_contrastive,16,觉得,29152,36,juede,NA,NA,NA,juede,non-belief,1,constrained
435,condition1,3,yiwei_contrastive,6,还以为,11504,37,yiwei,NA,NA,NA,yiwei,contra,1,constrained
435,condition1,3,yiwei_unclear,105,以为,21016,38,yiwei,NA,NA,NA,yiwei,contra,1,unconstrained
435,condition1,3,yiwei_contrastive,1,觉得,20384,40,yiwei,NA,NA,NA,juede,non-belief,0,constrained
435,condition1,4,juede_contrastive,11,那就,48208,41,juede,NA,NA,NA,other,other,0,constrained
435,condition1,4,yiwei_contrastive,5,以为,11664,42,yiwei,NA,NA,NA,yiwei,contra,1,constrained
435,condition1,4,yiwei_unclear,104,以为,13592,43,yiwei,NA,NA,NA,yiwei,contra,1,unconstrained
435,condition1,4,juede_contrastive,20,面前,55928,44,juede,NA,NA,NA,other,other,0,constrained
435,condition1,4,juede_unclear,114,怕,20184,45,juede,NA,NA,NA,other,non-emotion,0,unconstrained
435,condition1,4,yiwei_contrastive,7,以为,14168,46,yiwei,NA,NA,NA,yiwei,contra,1,constrained
435,condition1,4,yiwei_unclear,108,认为,30537,49,yiwei,NA,NA,NA,other,non-belief,0,unconstrained
435,condition1,4,juede_unclear,111,觉得,11431,50,juede,NA,NA,NA,juede,non-belief,1,unconstrained
429,condition1,0,juede_unclear,117,放,12173,1,juede,NA,NA,NA,other,verb,0,unconstrained
429,condition1,0,juede_contrastive,12,觉得,13133,2,juede,NA,NA,NA,juede,non-belief,1,constrained
429,condition1,0,yiwei_contrastive,1,原来,21071,3,yiwei,NA,NA,NA,other,other,0,constrained
429,condition1,0,yiwei_unclear,102,觉得,11056,4,yiwei,NA,NA,NA,juede,non-belief,0,unconstrained
429,condition1,0,yiwei_contrastive,7,以为,25188,6,yiwei,NA,NA,NA,yiwei,contra,1,constrained
429,condition1,0,yiwei_unclear,101,会以为,10814,8,yiwei,NA,NA,NA,yiwei,contra,1,unconstrained
429,condition1,0,juede_unclear,115,认为,17683,9,juede,NA,NA,NA,other,non-belief,0,unconstrained
429,condition1,0,juede_contrastive,13,说,26023,10,juede,NA,NA,NA,other,non-say,0,constrained
429,condition1,1,yiwei_contrastive,3,以为,11419,11,yiwei,NA,NA,NA,yiwei,contra,1,constrained
429,condition1,1,yiwei_contrastive,4,以为,16832,13,yiwei,NA,NA,NA,yiwei,contra,1,constrained
429,condition1,1,juede_contrastive,14,觉得,37540,14,juede,NA,NA,NA,juede,non-belief,1,constrained
429,condition1,1,yiwei_unclear,106,以为,25828,15,yiwei,NA,NA,NA,yiwei,contra,1,unconstrained
429,condition1,1,juede_unclear,119,感觉,16701,16,juede,NA,NA,NA,other,non-belief,0,unconstrained
429,condition1,1,juede_unclear,113,觉得,9130,17,juede,NA,NA,NA,juede,non-belief,1,unconstrained
429,condition1,1,yiwei_unclear,103,以为,7667,18,yiwei,NA,NA,NA,yiwei,contra,1,unconstrained
429,condition1,1,juede_contrastive,19,觉得,7038,20,juede,NA,NA,NA,juede,non-belief,1,constrained
429,condition1,2,yiwei_unclear,107,以为,7743,21,yiwei,NA,NA,NA,yiwei,contra,1,unconstrained
429,condition1,2,juede_unclear,112,觉得,24729,22,juede,NA,NA,NA,juede,non-belief,1,unconstrained
429,condition1,2,yiwei_unclear,108,以为,13528,23,yiwei,NA,NA,NA,yiwei,contra,1,unconstrained
429,condition1,2,juede_contrastive,20,觉得,10479,24,juede,NA,NA,NA,juede,non-belief,1,constrained
429,condition1,2,yiwei_contrastive,8,以为,23752,25,yiwei,NA,NA,NA,yiwei,contra,1,constrained
429,condition1,2,juede_unclear,120,觉得,18826,26,juede,NA,NA,NA,juede,non-belief,1,unconstrained
429,condition1,2,yiwei_contrastive,9,因为,7952,27,yiwei,NA,NA,NA,other,other,0,constrained
429,condition1,2,juede_contrastive,16,觉得,16842,29,juede,NA,NA,NA,juede,non-belief,1,constrained
429,condition1,3,juede_contrastive,11,感觉,24827,31,juede,NA,NA,NA,other,non-belief,0,constrained
429,condition1,3,juede_unclear,118,感觉,9048,32,juede,NA,NA,NA,other,non-belief,0,unconstrained
429,condition1,3,juede_contrastive,18,以为,10571,33,juede,NA,NA,NA,yiwei,contra,0,constrained
429,condition1,3,yiwei_contrastive,10,以为,13718,34,yiwei,NA,NA,NA,yiwei,contra,1,constrained
429,condition1,3,yiwei_unclear,110,以为,14218,35,yiwei,NA,NA,NA,yiwei,contra,1,unconstrained
429,condition1,3,juede_unclear,116,认,16814,37,juede,NA,NA,NA,other,other,0,unconstrained
429,condition1,3,yiwei_contrastive,5,以为,9281,39,yiwei,NA,NA,NA,yiwei,contra,1,constrained
429,condition1,3,yiwei_unclear,105,以为,12001,40,yiwei,NA,NA,NA,yiwei,contra,1,unconstrained
429,condition1,4,yiwei_unclear,104,以为,28260,42,yiwei,NA,NA,NA,yiwei,contra,1,unconstrained
429,condition1,4,juede_contrastive,17,认为,10269,43,juede,NA,NA,NA,other,non-belief,0,constrained
429,condition1,4,yiwei_contrastive,2,以为,9897,44,yiwei,NA,NA,NA,yiwei,contra,1,constrained
429,condition1,4,juede_contrastive,15,看,8220,45,juede,NA,NA,NA,other,non-other,0,constrained
429,condition1,4,yiwei_contrastive,6,以为,7056,46,yiwei,NA,NA,NA,yiwei,contra,1,constrained
429,condition1,4,yiwei_unclear,109,以为,12784,47,yiwei,NA,NA,NA,yiwei,contra,1,unconstrained
429,condition1,4,juede_unclear,114,害怕,13444,49,juede,NA,NA,NA,other,non-emotion,0,unconstrained
429,condition1,4,juede_unclear,111,觉得,6486,50,juede,NA,NA,NA,juede,non-belief,1,unconstrained
461,condition1,0,yiwei_contrastive,6,以為,27725,2,yiwei,NA,NA,NA,yiwei,contra,1,constrained
461,condition1,0,juede_unclear,115,覺得,84527,3,juede,NA,NA,NA,juede,non-belief,1,unconstrained
461,condition1,0,juede_contrastive,19,覺得,19180,4,juede,NA,NA,NA,juede,non-belief,1,constrained
461,condition1,0,yiwei_unclear,104,以為,42819,5,yiwei,NA,NA,NA,yiwei,contra,1,unconstrained
461,condition1,0,juede_unclear,112,覺得,59658,6,juede,NA,NA,NA,juede,non-belief,1,unconstrained
461,condition1,0,yiwei_contrastive,8,發現,91398,7,yiwei,NA,NA,NA,other,factive-other,0,constrained
461,condition1,0,yiwei_unclear,107,以為,12778,8,yiwei,NA,NA,NA,yiwei,contra,1,unconstrained
461,condition1,0,juede_contrastive,16,覺得,17736,10,juede,NA,NA,NA,juede,non-belief,1,constrained
461,condition1,1,yiwei_contrastive,9,以為,23307,11,yiwei,NA,NA,NA,yiwei,contra,1,constrained
461,condition1,1,yiwei_unclear,103,以為,15130,12,yiwei,NA,NA,NA,yiwei,contra,1,unconstrained
461,condition1,1,juede_unclear,118,覺得,24728,13,juede,NA,NA,NA,juede,non-belief,1,unconstrained
461,condition1,1,juede_contrastive,13,說,26160,14,juede,NA,NA,NA,other,non-say,0,constrained
461,condition1,1,yiwei_contrastive,7,以為,14406,16,yiwei,NA,NA,NA,yiwei,contra,1,constrained
461,condition1,1,juede_contrastive,12,覺得,22566,17,juede,NA,NA,NA,juede,non-belief,1,constrained
461,condition1,1,juede_unclear,116,大概,26314,19,juede,NA,NA,NA,other,other,0,unconstrained
461,condition1,1,yiwei_unclear,102,說,13837,20,yiwei,NA,NA,NA,other,non-say,0,unconstrained
461,condition1,2,yiwei_unclear,101,以為,19961,21,yiwei,NA,NA,NA,yiwei,contra,1,unconstrained
461,condition1,2,juede_contrastive,14,猜,14753,24,juede,NA,NA,NA,other,non-belief,0,constrained
461,condition1,2,yiwei_contrastive,10,猜,16191,25,yiwei,NA,NA,NA,other,non-belief,0,constrained
461,condition1,2,yiwei_contrastive,4,以為,17921,26,yiwei,NA,NA,NA,yiwei,contra,1,constrained
461,condition1,2,juede_contrastive,20,覺得,14092,27,juede,NA,NA,NA,juede,non-belief,1,constrained
461,condition1,2,yiwei_unclear,110,猜,59400,28,yiwei,NA,NA,NA,other,non-belief,0,unconstrained
461,condition1,2,juede_unclear,114,覺得,24252,29,juede,NA,NA,NA,juede,non-belief,1,unconstrained
461,condition1,2,juede_unclear,111,發現,17247,30,juede,NA,NA,NA,other,factive-other,0,unconstrained
461,condition1,3,juede_contrastive,15,說,15893,31,juede,NA,NA,NA,other,non-say,0,constrained
