workerid,proliferate.condition,block_id,condition,item_id,original_choice,response,rt,trial_num,verb,error
354,condition1,practice,practice_1,301,bei,correct,,0,NA,
354,condition1,practice,practice_2,302,lai,ambiguous,,0,NA,
354,condition1,practice,practice_3,303,qu,ambiguous,,0,NA,
354,condition1,practice,practice_4,304,ba,correct,,0,NA,
354,condition1,0,yiwei_contrastive,6,觉得,juede,10162,1,yiwei,
354,condition1,0,juede_unclear,120,觉得,juede,9461,2,juede,
354,condition1,0,yiwei_contrastive,7,觉得,juede,3529,3,yiwei,
354,condition1,0,yiwei_unclear,108,觉得,juede,3630,4,yiwei,
354,condition1,0,juede_contrastive,13,以为,yiwei,4457,5,juede,
354,condition1,0,juede_unclear,118,觉得,juede,3076,6,juede,
354,condition1,0,yiwei_unclear,103,以为,yiwei,5954,7,yiwei,
354,condition1,0,filler,909,画蛇,correct,4648,8,filler,
354,condition1,0,juede_contrastive,17,以为,yiwei,3898,9,juede,
354,condition1,0,filler,910,作气,correct,2901,10,filler,
354,condition1,1,yiwei_unclear,105,以为,yiwei,3361,11,yiwei,
354,condition1,1,yiwei_unclear,104,以为,yiwei,5854,12,yiwei,
354,condition1,1,juede_unclear,117,以为,yiwei,3789,13,juede,
354,condition1,1,juede_contrastive,12,觉得,juede,2682,14,juede,
354,condition1,1,yiwei_contrastive,8,以为,yiwei,2840,15,yiwei,
354,condition1,1,yiwei_contrastive,4,以为,yiwei,2283,16,yiwei,
354,condition1,1,juede_contrastive,20,觉得,juede,8310,17,juede,
354,condition1,1,juede_unclear,119,以为,yiwei,7773,18,juede,
354,condition1,1,filler,904,以后,correct,5092,19,filler,
354,condition1,1,filler,907,谈兵,correct,2551,20,filler,
354,condition1,2,yiwei_contrastive,1,以为,yiwei,3604,21,yiwei,
354,condition1,2,yiwei_unclear,110,以为,yiwei,10661,22,yiwei,
354,condition1,2,juede_contrastive,14,以为,yiwei,2138,23,juede,
354,condition1,2,filler,903,以后,correct,2356,24,filler,
354,condition1,2,yiwei_unclear,106,以为,yiwei,6899,25,yiwei,
354,condition1,2,juede_unclear,113,觉得,juede,2236,26,juede,
354,condition1,2,yiwei_contrastive,5,以为,yiwei,3643,27,yiwei,
354,condition1,2,juede_contrastive,18,觉得,juede,10494,28,juede,
354,condition1,2,juede_unclear,111,觉得,juede,4221,29,juede,
354,condition1,2,filler,901,以前,correct,5638,30,filler,
354,condition1,3,filler,906,点睛,correct,4421,31,filler,
354,condition1,3,yiwei_contrastive,3,以为,yiwei,10988,32,yiwei,
354,condition1,3,filler,902,以前,correct,3975,33,filler,
354,condition1,3,yiwei_unclear,102,觉得,juede,3524,34,yiwei,
354,condition1,3,juede_unclear,115,觉得,juede,5069,35,juede,
354,condition1,3,juede_contrastive,19,觉得,juede,8391,36,juede,
354,condition1,3,yiwei_unclear,101,以为,yiwei,3189,37,yiwei,
354,condition1,3,yiwei_contrastive,10,以为,yiwei,3085,38,yiwei,
354,condition1,3,juede_contrastive,16,觉得,juede,5182,39,juede,
354,condition1,3,juede_unclear,112,觉得,juede,3369,40,juede,
354,condition1,4,juede_contrastive,15,觉得,juede,8445,41,juede,
354,condition1,4,yiwei_contrastive,9,觉得,juede,2354,42,yiwei,
354,condition1,4,yiwei_unclear,109,以为,yiwei,2356,43,yiwei,
354,condition1,4,filler,908,拆桥,correct,4983,44,filler,
354,condition1,4,juede_unclear,116,觉得,juede,2428,45,juede,
354,condition1,4,yiwei_contrastive,2,以为,yiwei,3652,46,yiwei,
354,condition1,4,filler,905,桃源,correct,2615,47,filler,
354,condition1,4,yiwei_unclear,107,以为,yiwei,4733,48,yiwei,
354,condition1,4,juede_contrastive,11,觉得,juede,2684,49,juede,
354,condition1,4,juede_unclear,114,觉得,juede,8707,50,juede,
324,condition1,practice,practice_1,301,bei,correct,,0,NA,
324,condition1,practice,practice_2,302,lai,ambiguous,,0,NA,
324,condition1,practice,practice_3,303,lai,ambiguous,,0,NA,
324,condition1,practice,practice_4,304,ba,correct,,0,NA,
324,condition1,0,yiwei_contrastive,7,觉得,juede,3728,1,yiwei,
324,condition1,0,juede_unclear,119,觉得,juede,4810,2,juede,
324,condition1,0,filler,906,点睛,correct,3398,3,filler,
324,condition1,0,juede_contrastive,19,觉得,juede,4058,4,juede,
324,condition1,0,yiwei_unclear,106,觉得,juede,5235,5,yiwei,
324,condition1,0,filler,909,画蛇,correct,4250,6,filler,
324,condition1,0,yiwei_contrastive,2,以为,yiwei,3327,7,yiwei,
324,condition1,0,juede_contrastive,18,觉得,juede,3069,8,juede,
324,condition1,0,juede_unclear,120,以为,yiwei,3699,9,juede,
324,condition1,0,yiwei_unclear,102,觉得,juede,3327,10,yiwei,
324,condition1,1,yiwei_contrastive,9,以为,yiwei,2907,11,yiwei,
324,condition1,1,yiwei_contrastive,4,以为,yiwei,3635,12,yiwei,
324,condition1,1,yiwei_unclear,110,以为,yiwei,4480,13,yiwei,
324,condition1,1,juede_unclear,118,觉得,juede,3933,14,juede,
324,condition1,1,filler,907,谈兵,correct,2936,15,filler,
324,condition1,1,juede_contrastive,13,以为,yiwei,4281,16,juede,
324,condition1,1,juede_contrastive,12,觉得,juede,2913,17,juede,
324,condition1,1,filler,904,以后,correct,5477,18,filler,
324,condition1,1,yiwei_unclear,104,以为,yiwei,5161,19,yiwei,
324,condition1,1,juede_unclear,113,觉得,juede,2937,20,juede,
324,condition1,2,juede_unclear,114,觉得,juede,4244,21,juede,
324,condition1,2,juede_contrastive,15,以为,yiwei,6360,22,juede,
324,condition1,2,yiwei_unclear,107,以为,yiwei,3258,23,yiwei,
324,condition1,2,yiwei_contrastive,5,以为,yiwei,3230,24,yiwei,
324,condition1,2,juede_unclear,115,以为,yiwei,2452,25,juede,
324,condition1,2,yiwei_contrastive,1,觉得,juede,2682,26,yiwei,
324,condition1,2,filler,905,桃源,correct,2803,27,filler,
324,condition1,2,juede_contrastive,20,以为,yiwei,4463,28,juede,
324,condition1,2,yiwei_unclear,108,以为,yiwei,3622,29,yiwei,
324,condition1,2,filler,902,以前,correct,3375,30,filler,
324,condition1,3,yiwei_contrastive,8,以为,yiwei,3349,31,yiwei,
324,condition1,3,juede_unclear,117,以为,yiwei,3074,32,juede,
324,condition1,3,yiwei_unclear,101,觉得,juede,6718,33,yiwei,
324,condition1,3,filler,903,以后,correct,5190,34,filler,
324,condition1,3,yiwei_unclear,109,以为,yiwei,4230,35,yiwei,
324,condition1,3,juede_contrastive,14,以为,yiwei,3134,36,juede,
324,condition1,3,juede_unclear,111,觉得,juede,3694,37,juede,
324,condition1,3,juede_contrastive,17,以为,yiwei,4851,38,juede,
324,condition1,3,filler,908,拆桥,correct,4136,39,filler,
324,condition1,3,yiwei_contrastive,6,觉得,juede,3377,40,yiwei,
324,condition1,4,yiwei_contrastive,3,以为,yiwei,3553,41,yiwei,
324,condition1,4,filler,910,作气,correct,3501,42,filler,
324,condition1,4,juede_unclear,112,觉得,juede,4473,43,juede,
324,condition1,4,filler,901,以前,correct,23125,44,filler,
324,condition1,4,yiwei_unclear,105,以为,yiwei,7037,45,yiwei,
324,condition1,4,juede_contrastive,16,觉得,juede,4736,46,juede,
324,condition1,4,yiwei_contrastive,10,以为,yiwei,3324,47,yiwei,
324,condition1,4,juede_unclear,116,觉得,juede,4648,48,juede,
324,condition1,4,juede_contrastive,11,觉得,juede,4656,49,juede,
324,condition1,4,yiwei_unclear,103,以为,yiwei,9254,50,yiwei,
377,condition1,practice,practice_1,301,bei,correct,,0,NA,
377,condition1,practice,practice_2,302,lai,ambiguous,,0,NA,
377,condition1,practice,practice_3,303,qu,ambiguous,,0,NA,
377,condition1,practice,practice_4,304,ba,correct,,0,NA,
377,condition1,0,yiwei_unclear,103,以为,yiwei,7567,1,yiwei,
377,condition1,0,juede_contrastive,11,觉得,juede,5047,2,juede,
377,condition1,0,yiwei_unclear,105,以为,yiwei,9766,3,yiwei,
377,condition1,0,juede_unclear,118,觉得,juede,8234,4,juede,
377,condition1,0,yiwei_contrastive,6,觉得,juede,5916,5,yiwei,
377,condition1,0,juede_unclear,120,觉得,juede,8685,6,juede,
377,condition1,0,filler,904,以后,correct,11050,7,filler,
377,condition1,0,filler,910,作气,correct,4367,8,filler,
377,condition1,0,yiwei_contrastive,7,觉得,juede,10115,9,yiwei,
377,condition1,0,juede_contrastive,20,觉得,juede,10900,10,juede,
377,condition1,1,juede_unclear,116,觉得,juede,18049,11,juede,
377,condition1,1,yiwei_contrastive,8,以为,yiwei,10567,12,yiwei,
377,condition1,1,juede_contrastive,13,觉得,juede,8301,13,juede,
377,condition1,1,filler,909,画蛇,correct,9099,14,filler,
377,condition1,1,yiwei_contrastive,9,以为,yiwei,3717,15,yiwei,
377,condition1,1,yiwei_unclear,107,觉得,juede,6468,16,yiwei,
377,condition1,1,yiwei_unclear,109,以为,yiwei,5399,17,yiwei,
377,condition1,1,juede_unclear,117,以为,yiwei,14750,18,juede,
377,condition1,1,juede_contrastive,15,觉得,juede,46032,19,juede,
377,condition1,1,filler,908,拆桥,correct,16751,20,filler,
377,condition1,2,yiwei_unclear,104,以为,yiwei,7284,21,yiwei,
377,condition1,2,filler,905,桃源,correct,4301,22,filler,
377,condition1,2,yiwei_unclear,101,以为,yiwei,4550,23,yiwei,
377,condition1,2,yiwei_contrastive,3,觉得,juede,7515,24,yiwei,
377,condition1,2,juede_contrastive,16,觉得,juede,5567,25,juede,
377,condition1,2,filler,903,以后,correct,7899,26,filler,
377,condition1,2,juede_unclear,114,觉得,juede,15635,27,juede,
377,condition1,2,yiwei_contrastive,5,以为,yiwei,21398,28,yiwei,
377,condition1,2,juede_unclear,115,觉得,juede,7783,29,juede,
377,condition1,2,juede_contrastive,18,觉得,juede,9217,30,juede,
377,condition1,3,filler,902,以前,correct,5685,31,filler,
377,condition1,3,yiwei_unclear,110,以为,yiwei,9266,32,yiwei,
377,condition1,3,yiwei_contrastive,2,以为,yiwei,6999,33,yiwei,
377,condition1,3,juede_contrastive,19,觉得,juede,4767,34,juede,
377,condition1,3,yiwei_unclear,108,觉得,juede,23449,35,yiwei,
377,condition1,3,juede_unclear,113,觉得,juede,6917,36,juede,
377,condition1,3,juede_contrastive,17,觉得,juede,29816,37,juede,
377,condition1,3,filler,907,谈兵,correct,3801,38,filler,
377,condition1,3,yiwei_contrastive,1,觉得,juede,5550,39,yiwei,
377,condition1,3,juede_unclear,111,觉得,juede,9433,40,juede,
377,condition1,4,filler,901,以前,correct,7871,41,filler,
377,condition1,4,yiwei_unclear,102,觉得,juede,11062,42,yiwei,
377,condition1,4,juede_unclear,112,觉得,juede,6734,43,juede,
377,condition1,4,filler,906,点睛,correct,7335,44,filler,
377,condition1,4,juede_contrastive,12,觉得,juede,6898,45,juede,
377,condition1,4,yiwei_contrastive,10,以为,yiwei,22700,46,yiwei,
377,condition1,4,yiwei_unclear,106,以为,yiwei,24217,47,yiwei,
377,condition1,4,juede_unclear,119,觉得,juede,7283,48,juede,
377,condition1,4,yiwei_contrastive,4,以为,yiwei,6667,49,yiwei,
377,condition1,4,juede_contrastive,14,觉得,juede,6916,50,juede,
288,condition1,practice,practice_1,301,bei,correct,,0,NA,
288,condition1,practice,practice_2,302,lai,ambiguous,,0,NA,
288,condition1,practice,practice_3,303,lai,ambiguous,,0,NA,
288,condition1,practice,practice_4,304,ba,correct,,0,NA,
288,condition1,0,yiwei_contrastive,10,以为,yiwei,3498,1,yiwei,
288,condition1,0,yiwei_unclear,107,以为,yiwei,5268,2,yiwei,
288,condition1,0,filler,902,以前,correct,3014,3,filler,
288,condition1,0,juede_contrastive,20,以为,yiwei,3633,4,juede,
288,condition1,0,juede_contrastive,13,觉得,juede,3550,5,juede,
288,condition1,0,juede_unclear,111,觉得,juede,3768,6,juede,
288,condition1,0,yiwei_contrastive,7,觉得,juede,4951,7,yiwei,
288,condition1,0,filler,910,作气,correct,2982,8,filler,
288,condition1,0,juede_unclear,120,觉得,juede,5266,9,juede,
288,condition1,0,yiwei_unclear,101,以为,yiwei,4402,10,yiwei,
288,condition1,1,juede_unclear,117,觉得,juede,3997,11,juede,
288,condition1,1,yiwei_unclear,109,觉得,juede,3400,12,yiwei,
288,condition1,1,juede_contrastive,16,觉得,juede,2183,13,juede,
288,condition1,1,juede_contrastive,11,觉得,juede,3217,14,juede,
288,condition1,1,yiwei_unclear,103,以为,yiwei,2666,15,yiwei,
288,condition1,1,filler,908,拆桥,correct,3183,16,filler,
288,condition1,1,filler,901,以前,correct,3750,17,filler,
288,condition1,1,juede_unclear,114,觉得,juede,3416,18,juede,
288,condition1,1,yiwei_contrastive,2,以为,yiwei,2985,19,yiwei,
288,condition1,1,yiwei_contrastive,1,觉得,juede,4050,20,yiwei,
288,condition1,2,juede_contrastive,14,以为,yiwei,4498,21,juede,
288,condition1,2,juede_contrastive,18,觉得,juede,3535,22,juede,
288,condition1,2,filler,904,以后,correct,3948,23,filler,
288,condition1,2,yiwei_unclear,108,以为,yiwei,3750,24,yiwei,
288,condition1,2,yiwei_contrastive,3,觉得,juede,3265,25,yiwei,
288,condition1,2,juede_unclear,116,觉得,juede,4433,26,juede,
288,condition1,2,juede_unclear,115,以为,yiwei,4617,27,juede,
288,condition1,2,yiwei_contrastive,8,以为,yiwei,3400,28,yiwei,
288,condition1,2,yiwei_unclear,106,觉得,juede,5135,29,yiwei,
288,condition1,2,filler,906,点睛,correct,2882,30,filler,
288,condition1,3,juede_unclear,119,觉得,juede,2516,31,juede,
288,condition1,3,juede_contrastive,17,以为,yiwei,2634,32,juede,
288,condition1,3,filler,903,以后,correct,2167,33,filler,
288,condition1,3,yiwei_contrastive,6,觉得,juede,3015,34,yiwei,
288,condition1,3,juede_contrastive,15,觉得,juede,7401,35,juede,
288,condition1,3,juede_unclear,112,觉得,juede,1933,36,juede,
288,condition1,3,yiwei_unclear,105,以为,yiwei,3500,37,yiwei,
288,condition1,3,yiwei_contrastive,5,以为,yiwei,3417,38,yiwei,
288,condition1,3,yiwei_unclear,104,以为,yiwei,3651,39,yiwei,
288,condition1,3,filler,905,桃源,correct,2216,40,filler,
288,condition1,4,juede_unclear,118,觉得,juede,2732,41,juede,
288,condition1,4,filler,907,谈兵,correct,1716,42,filler,
288,condition1,4,juede_unclear,113,觉得,juede,1751,43,juede,
288,condition1,4,yiwei_unclear,102,以为,yiwei,2750,44,yiwei,
288,condition1,4,yiwei_unclear,110,以为,yiwei,3964,45,yiwei,
288,condition1,4,juede_contrastive,12,觉得,juede,2336,46,juede,
288,condition1,4,yiwei_contrastive,4,以为,yiwei,2149,47,yiwei,
288,condition1,4,filler,909,画龙,incorrect,3768,48,filler,
288,condition1,4,yiwei_contrastive,9,以为,yiwei,4917,49,yiwei,
288,condition1,4,juede_contrastive,19,觉得,juede,3916,50,juede,
373,condition1,practice,practice_1,301,bei,correct,,0,NA,
373,condition1,practice,practice_2,302,lai,ambiguous,,0,NA,
373,condition1,practice,practice_3,303,lai,ambiguous,,0,NA,
373,condition1,practice,practice_4,304,ba,correct,,0,NA,
373,condition1,0,juede_contrastive,16,觉得,juede,3864,1,juede,
373,condition1,0,yiwei_unclear,101,以为,yiwei,8891,2,yiwei,
373,condition1,0,yiwei_contrastive,1,觉得,juede,3215,3,yiwei,
373,condition1,0,juede_contrastive,17,以为,yiwei,4388,4,juede,
373,condition1,0,filler,908,拆桥,correct,2987,5,filler,
373,condition1,0,juede_unclear,114,以为,yiwei,14722,6,juede,
373,condition1,0,yiwei_contrastive,5,以为,yiwei,2962,7,yiwei,
373,condition1,0,juede_unclear,120,觉得,juede,3833,8,juede,
373,condition1,0,filler,903,以后,correct,2421,9,filler,
373,condition1,0,yiwei_unclear,102,以为,yiwei,10867,10,yiwei,
373,condition1,1,yiwei_unclear,108,以为,yiwei,6992,11,yiwei,
373,condition1,1,yiwei_contrastive,2,以为,yiwei,7010,12,yiwei,
373,condition1,1,juede_unclear,119,觉得,juede,5030,13,juede,
373,condition1,1,yiwei_contrastive,3,以为,yiwei,5965,14,yiwei,
373,condition1,1,juede_contrastive,13,以为,yiwei,7184,15,juede,
373,condition1,1,juede_contrastive,15,以为,yiwei,9304,16,juede,
373,condition1,1,filler,901,以前,correct,2880,17,filler,
373,condition1,1,juede_unclear,115,觉得,juede,6418,18,juede,
373,condition1,1,filler,905,桃源,correct,2616,19,filler,
373,condition1,1,yiwei_unclear,105,以为,yiwei,6900,20,yiwei,
373,condition1,2,juede_contrastive,19,觉得,juede,2778,21,juede,
373,condition1,2,yiwei_contrastive,10,以为,yiwei,4067,22,yiwei,
373,condition1,2,filler,910,作气,correct,2403,23,filler,
373,condition1,2,juede_contrastive,18,以为,yiwei,3502,24,juede,
373,condition1,2,yiwei_unclear,110,以为,yiwei,10206,25,yiwei,
373,condition1,2,juede_unclear,116,觉得,juede,6175,26,juede,
373,condition1,2,juede_unclear,112,觉得,juede,4058,27,juede,
373,condition1,2,filler,904,以后,correct,4483,28,filler,
373,condition1,2,yiwei_contrastive,7,觉得,juede,4262,29,yiwei,
373,condition1,2,yiwei_unclear,104,以为,yiwei,6834,30,yiwei,
373,condition1,3,yiwei_contrastive,6,觉得,juede,7975,31,yiwei,
373,condition1,3,juede_unclear,111,觉得,juede,2693,32,juede,
373,condition1,3,filler,907,谈兵,correct,2944,33,filler,
373,condition1,3,yiwei_unclear,109,以为,yiwei,2209,34,yiwei,
373,condition1,3,juede_contrastive,11,觉得,juede,3621,35,juede,
373,condition1,3,juede_unclear,117,以为,yiwei,2859,36,juede,
373,condition1,3,yiwei_contrastive,8,以为,yiwei,3806,37,yiwei,
373,condition1,3,filler,909,画蛇,correct,5409,38,filler,
373,condition1,3,yiwei_unclear,106,觉得,juede,5466,39,yiwei,
373,condition1,3,juede_contrastive,20,觉得,juede,7888,40,juede,
373,condition1,4,filler,906,点睛,correct,3291,41,filler,
373,condition1,4,juede_unclear,118,觉得,juede,4229,42,juede,
373,condition1,4,juede_contrastive,14,觉得,juede,5325,43,juede,
373,condition1,4,juede_contrastive,12,觉得,juede,2250,44,juede,
373,condition1,4,filler,902,以前,correct,2850,45,filler,
373,condition1,4,yiwei_unclear,103,以为,yiwei,5146,46,yiwei,
373,condition1,4,yiwei_contrastive,4,觉得,juede,5758,47,yiwei,
373,condition1,4,juede_unclear,113,觉得,juede,2533,48,juede,
373,condition1,4,yiwei_contrastive,9,以为,yiwei,3733,49,yiwei,
373,condition1,4,yiwei_unclear,107,以为,yiwei,3029,50,yiwei,
293,condition1,practice,practice_1,301,bei,correct,,0,NA,
293,condition1,practice,practice_2,302,lai,ambiguous,,0,NA,
293,condition1,practice,practice_3,303,lai,ambiguous,,0,NA,
293,condition1,practice,practice_4,304,ba,correct,,0,NA,
293,condition1,0,yiwei_contrastive,6,以为,yiwei,8679,1,yiwei,
293,condition1,0,filler,907,谈兵,correct,4386,2,filler,
293,condition1,0,juede_unclear,115,觉得,juede,9945,3,juede,
293,condition1,0,yiwei_unclear,108,觉得,juede,11154,4,yiwei,
293,condition1,0,filler,901,以前,correct,9908,5,filler,
293,condition1,0,juede_contrastive,15,以为,yiwei,13233,6,juede,
293,condition1,0,juede_unclear,117,以为,yiwei,5304,7,juede,
293,condition1,0,juede_contrastive,18,觉得,juede,12995,8,juede,
293,condition1,0,yiwei_unclear,104,以为,yiwei,6758,9,yiwei,
293,condition1,0,yiwei_contrastive,2,以为,yiwei,4837,10,yiwei,
293,condition1,1,yiwei_unclear,107,以为,yiwei,9168,11,yiwei,
293,condition1,1,filler,909,画蛇,correct,7251,12,filler,
293,condition1,1,yiwei_contrastive,9,觉得,juede,5470,13,yiwei,
293,condition1,1,juede_unclear,116,觉得,juede,6979,14,juede,
293,condition1,1,juede_unclear,120,觉得,juede,11554,15,juede,
293,condition1,1,yiwei_unclear,110,以为,yiwei,8181,16,yiwei,
293,condition1,1,juede_contrastive,13,以为,yiwei,12106,17,juede,
293,condition1,1,filler,906,点睛,correct,6005,18,filler,
293,condition1,1,yiwei_contrastive,5,以为,yiwei,5341,19,yiwei,
293,condition1,1,juede_contrastive,17,觉得,juede,6208,20,juede,
293,condition1,2,yiwei_unclear,106,觉得,juede,12583,21,yiwei,
293,condition1,2,yiwei_unclear,101,以为,yiwei,4837,22,yiwei,
293,condition1,2,yiwei_contrastive,10,以为,yiwei,5924,23,yiwei,
293,condition1,2,juede_unclear,114,觉得,juede,14693,24,juede,
293,condition1,2,yiwei_contrastive,8,以为,yiwei,5890,25,yiwei,
293,condition1,2,juede_contrastive,11,觉得,juede,5973,26,juede,
293,condition1,2,juede_unclear,119,觉得,juede,16022,27,juede,
293,condition1,2,filler,905,桃源,correct,6059,28,filler,
293,condition1,2,filler,908,拆桥,correct,4942,29,filler,
293,condition1,2,juede_contrastive,19,觉得,juede,5974,30,juede,
293,condition1,3,juede_unclear,118,觉得,juede,5225,31,juede,
293,condition1,3,yiwei_unclear,109,以为,yiwei,4436,32,yiwei,
293,condition1,3,juede_contrastive,16,觉得,juede,4475,33,juede,
293,condition1,3,juede_contrastive,14,觉得,juede,5753,34,juede,
293,condition1,3,filler,903,以后,correct,4358,35,filler,
293,condition1,3,filler,910,作气,correct,5255,36,filler,
293,condition1,3,yiwei_contrastive,1,以为,yiwei,5008,37,yiwei,
293,condition1,3,juede_unclear,111,觉得,juede,4811,38,juede,
293,condition1,3,yiwei_unclear,105,以为,yiwei,7207,39,yiwei,
293,condition1,3,yiwei_contrastive,4,以为,yiwei,4191,40,yiwei,
293,condition1,4,yiwei_unclear,103,以为,yiwei,6715,41,yiwei,
293,condition1,4,yiwei_contrastive,7,觉得,juede,4872,42,yiwei,
293,condition1,4,juede_contrastive,12,觉得,juede,3974,43,juede,
293,condition1,4,filler,902,以前,correct,4741,44,filler,
293,condition1,4,yiwei_unclear,102,觉得,juede,5627,45,yiwei,
293,condition1,4,juede_unclear,112,觉得,juede,4978,46,juede,
293,condition1,4,filler,904,以后,correct,5624,47,filler,
293,condition1,4,juede_unclear,113,觉得,juede,3052,48,juede,
293,condition1,4,yiwei_contrastive,3,以为,yiwei,4474,49,yiwei,
293,condition1,4,juede_contrastive,20,以为,yiwei,11639,50,juede,
368,condition1,practice,practice_1,301,bei,correct,,0,NA,
368,condition1,practice,practice_2,302,lai,ambiguous,,0,NA,
368,condition1,practice,practice_3,303,qu,ambiguous,,0,NA,
368,condition1,practice,practice_4,304,ba,correct,,0,NA,
368,condition1,0,yiwei_unclear,109,以为,yiwei,4046,1,yiwei,
368,condition1,0,yiwei_contrastive,7,觉得,juede,3500,2,yiwei,
368,condition1,0,juede_unclear,115,觉得,juede,3533,3,juede,
368,condition1,0,filler,905,桃源,correct,4584,4,filler,
368,condition1,0,juede_contrastive,16,觉得,juede,4003,5,juede,
368,condition1,0,juede_contrastive,13,以为,yiwei,3631,6,juede,
368,condition1,0,filler,909,画蛇,correct,5268,7,filler,
368,condition1,0,yiwei_unclear,107,觉得,juede,5650,8,yiwei,
368,condition1,0,yiwei_contrastive,10,以为,yiwei,3915,9,yiwei,
368,condition1,0,juede_unclear,111,觉得,juede,3853,10,juede,
368,condition1,1,yiwei_unclear,103,以为,yiwei,2847,11,yiwei,
368,condition1,1,juede_unclear,113,觉得,juede,2900,12,juede,
368,condition1,1,filler,903,以后,correct,2852,13,filler,
368,condition1,1,yiwei_contrastive,4,以为,yiwei,4465,14,yiwei,
368,condition1,1,juede_contrastive,11,觉得,juede,4700,15,juede,
368,condition1,1,juede_unclear,114,觉得,juede,7117,16,juede,
368,condition1,1,yiwei_contrastive,8,以为,yiwei,3216,17,yiwei,
368,condition1,1,filler,902,以前,correct,3567,18,filler,
368,condition1,1,yiwei_unclear,108,以为,yiwei,6250,19,yiwei,
368,condition1,1,juede_contrastive,15,以为,yiwei,5200,20,juede,
368,condition1,2,filler,904,以后,correct,4050,21,filler,
368,condition1,2,juede_unclear,120,觉得,juede,4234,22,juede,
368,condition1,2,yiwei_contrastive,5,以为,yiwei,2500,23,yiwei,
368,condition1,2,yiwei_unclear,106,以为,yiwei,7250,24,yiwei,
368,condition1,2,juede_contrastive,20,觉得,juede,6717,25,juede,
368,condition1,2,juede_unclear,119,觉得,juede,4401,26,juede,
368,condition1,2,filler,907,谈兵,correct,2966,27,filler,
368,condition1,2,yiwei_contrastive,6,觉得,juede,5800,28,yiwei,
368,condition1,2,juede_contrastive,12,觉得,juede,2668,29,juede,
368,condition1,2,yiwei_unclear,110,以为,yiwei,7854,30,yiwei,
368,condition1,3,filler,908,拆桥,correct,3468,31,filler,
368,condition1,3,juede_contrastive,18,觉得,juede,6196,32,juede,
368,condition1,3,yiwei_contrastive,1,以为,yiwei,3717,33,yiwei,
368,condition1,3,yiwei_unclear,104,以为,yiwei,6517,34,yiwei,
368,condition1,3,yiwei_unclear,101,以为,yiwei,5019,35,yiwei,
368,condition1,3,yiwei_contrastive,9,觉得,juede,2898,36,yiwei,
368,condition1,3,filler,906,点睛,correct,3650,37,filler,
368,condition1,3,juede_unclear,117,以为,yiwei,4151,38,juede,
368,condition1,3,juede_unclear,116,觉得,juede,6432,39,juede,
368,condition1,3,juede_contrastive,14,觉得,juede,8762,40,juede,
368,condition1,4,yiwei_unclear,105,以为,yiwei,4255,41,yiwei,
368,condition1,4,yiwei_contrastive,2,以为,yiwei,3684,42,yiwei,
368,condition1,4,yiwei_unclear,102,觉得,juede,2700,43,yiwei,
368,condition1,4,juede_contrastive,19,觉得,juede,6883,44,juede,
368,condition1,4,yiwei_contrastive,3,以为,yiwei,5750,45,yiwei,
368,condition1,4,juede_unclear,112,觉得,juede,3488,46,juede,
368,condition1,4,filler,901,以前,correct,4013,47,filler,
368,condition1,4,juede_contrastive,17,以为,yiwei,4016,48,juede,
368,condition1,4,filler,910,作气,correct,3083,49,filler,
368,condition1,4,juede_unclear,118,觉得,juede,4066,50,juede,
338,condition1,practice,practice_1,301,bei,correct,,0,NA,
338,condition1,practice,practice_2,302,lai,ambiguous,,0,NA,
338,condition1,practice,practice_3,303,lai,ambiguous,,0,NA,
338,condition1,practice,practice_4,304,ba,correct,,0,NA,
338,condition1,0,filler,904,以后,correct,4352,1,filler,
338,condition1,0,juede_contrastive,11,觉得,juede,3919,2,juede,
338,condition1,0,yiwei_unclear,106,以为,yiwei,3826,3,yiwei,
338,condition1,0,yiwei_contrastive,1,以为,yiwei,3348,4,yiwei,
338,condition1,0,juede_contrastive,17,觉得,juede,4849,5,juede,
338,condition1,0,juede_unclear,119,觉得,juede,2880,6,juede,
338,condition1,0,filler,910,作气,correct,2429,7,filler,
338,condition1,0,juede_unclear,120,觉得,juede,4012,8,juede,
338,condition1,0,yiwei_unclear,102,觉得,juede,3048,9,yiwei,
338,condition1,0,yiwei_contrastive,4,觉得,juede,3287,10,yiwei,
338,condition1,1,filler,905,桃源,correct,2876,11,filler,
338,condition1,1,filler,909,画蛇,correct,3946,12,filler,
338,condition1,1,juede_contrastive,13,以为,yiwei,3301,13,juede,
338,condition1,1,yiwei_unclear,108,以为,yiwei,2997,14,yiwei,
338,condition1,1,juede_contrastive,19,觉得,juede,3263,15,juede,
338,condition1,1,juede_unclear,115,觉得,juede,2434,16,juede,
338,condition1,1,yiwei_contrastive,8,觉得,juede,2785,17,yiwei,
338,condition1,1,yiwei_unclear,107,觉得,juede,2475,18,yiwei,
338,condition1,1,juede_unclear,117,以为,yiwei,2242,19,juede,
338,condition1,1,yiwei_contrastive,5,以为,yiwei,2096,20,yiwei,
338,condition1,2,juede_contrastive,12,觉得,juede,2448,21,juede,
338,condition1,2,juede_contrastive,20,以为,yiwei,4294,22,juede,
338,condition1,2,filler,907,谈兵,correct,2547,23,filler,
338,condition1,2,yiwei_unclear,103,以为,yiwei,2786,24,yiwei,
338,condition1,2,yiwei_contrastive,10,以为,yiwei,2835,25,yiwei,
338,condition1,2,filler,906,点睛,correct,4334,26,filler,
338,condition1,2,yiwei_contrastive,3,以为,yiwei,2624,27,yiwei,
338,condition1,2,juede_unclear,111,觉得,juede,3644,28,juede,
338,condition1,2,juede_unclear,112,觉得,juede,3116,29,juede,
338,condition1,2,yiwei_unclear,110,以为,yiwei,3558,30,yiwei,
338,condition1,3,filler,903,以后,correct,2646,31,filler,
338,condition1,3,juede_contrastive,18,觉得,juede,4453,32,juede,
338,condition1,3,juede_unclear,116,觉得,juede,2904,33,juede,
338,condition1,3,yiwei_unclear,101,以为,yiwei,3110,34,yiwei,
338,condition1,3,juede_contrastive,15,觉得,juede,4027,35,juede,
338,condition1,3,yiwei_contrastive,9,以为,yiwei,2044,36,yiwei,
338,condition1,3,yiwei_contrastive,7,以为,yiwei,2023,37,yiwei,
338,condition1,3,yiwei_unclear,105,以为,yiwei,3032,38,yiwei,
338,condition1,3,juede_unclear,113,觉得,juede,2509,39,juede,
338,condition1,3,filler,902,以前,correct,3281,40,filler,
338,condition1,4,yiwei_unclear,109,以为,yiwei,2197,41,yiwei,
338,condition1,4,juede_contrastive,14,以为,yiwei,2229,42,juede,
338,condition1,4,yiwei_contrastive,2,以为,yiwei,2625,43,yiwei,
338,condition1,4,filler,901,以前,correct,4415,44,filler,
338,condition1,4,juede_unclear,118,觉得,juede,2948,45,juede,
338,condition1,4,juede_contrastive,16,觉得,juede,2217,46,juede,
338,condition1,4,filler,908,拆桥,correct,2691,47,filler,
338,condition1,4,juede_unclear,114,觉得,juede,5404,48,juede,
338,condition1,4,yiwei_unclear,104,以为,yiwei,3607,49,yiwei,
338,condition1,4,yiwei_contrastive,6,以为,yiwei,2176,50,yiwei,
306,condition1,practice,practice_1,301,bei,correct,,0,NA,
306,condition1,practice,practice_2,302,lai,ambiguous,,0,NA,
306,condition1,practice,practice_3,303,qu,ambiguous,,0,NA,
306,condition1,practice,practice_4,304,ba,correct,,0,NA,
306,condition1,0,yiwei_unclear,101,以为,yiwei,4514,1,yiwei,
306,condition1,0,juede_contrastive,17,以为,yiwei,5247,2,juede,
306,condition1,0,yiwei_unclear,105,以为,yiwei,5782,3,yiwei,
306,condition1,0,yiwei_contrastive,9,觉得,juede,4134,4,yiwei,
306,condition1,0,juede_unclear,118,觉得,juede,4367,5,juede,
306,condition1,0,filler,905,桃源,correct,3113,6,filler,
306,condition1,0,juede_contrastive,12,觉得,juede,2997,7,juede,
306,condition1,0,yiwei_contrastive,5,以为,yiwei,3600,8,yiwei,
306,condition1,0,filler,906,点睛,correct,5148,9,filler,
306,condition1,0,juede_unclear,120,以为,yiwei,5848,10,juede,
306,condition1,1,juede_contrastive,19,觉得,juede,4534,11,juede,
306,condition1,1,filler,907,谈兵,correct,2581,12,filler,
306,condition1,1,juede_contrastive,18,觉得,juede,4433,13,juede,
306,condition1,1,yiwei_contrastive,3,以为,yiwei,4467,14,yiwei,
306,condition1,1,filler,902,以前,correct,4015,15,filler,
306,condition1,1,yiwei_contrastive,4,以为,yiwei,4586,16,yiwei,
306,condition1,1,yiwei_unclear,104,以为,yiwei,4036,17,yiwei,
306,condition1,1,juede_unclear,111,觉得,juede,3400,18,juede,
306,condition1,1,juede_unclear,113,觉得,juede,3116,19,juede,
306,condition1,1,yiwei_unclear,106,觉得,juede,5050,20,yiwei,
306,condition1,2,filler,910,作气,correct,3315,21,filler,
306,condition1,2,juede_unclear,112,觉得,juede,3801,22,juede,
306,condition1,2,filler,904,以后,correct,5318,23,filler,
306,condition1,2,yiwei_unclear,107,以为,yiwei,3901,24,yiwei,
306,condition1,2,juede_unclear,115,觉得,juede,2917,25,juede,
306,condition1,2,juede_contrastive,15,以为,yiwei,9247,26,juede,
306,condition1,2,yiwei_unclear,102,觉得,juede,4354,27,yiwei,
306,condition1,2,yiwei_contrastive,7,以为,yiwei,2703,28,yiwei,
306,condition1,2,yiwei_contrastive,1,觉得,juede,3386,29,yiwei,
306,condition1,2,juede_contrastive,11,觉得,juede,2871,30,juede,
306,condition1,3,yiwei_contrastive,6,以为,yiwei,2421,31,yiwei,
306,condition1,3,yiwei_unclear,108,以为,yiwei,4871,32,yiwei,
306,condition1,3,juede_contrastive,14,觉得,juede,2704,33,juede,
306,condition1,3,yiwei_unclear,109,以为,yiwei,4660,34,yiwei,
306,condition1,3,yiwei_contrastive,10,以为,yiwei,3482,35,yiwei,
306,condition1,3,filler,901,以前,correct,4725,36,filler,
306,condition1,3,filler,903,以后,correct,3304,37,filler,
306,condition1,3,juede_unclear,117,以为,yiwei,3421,38,juede,
306,condition1,3,juede_unclear,114,以为,yiwei,8157,39,juede,
306,condition1,3,juede_contrastive,13,觉得,juede,5275,40,juede,
306,condition1,4,juede_contrastive,20,觉得,juede,4924,41,juede,
306,condition1,4,juede_contrastive,16,觉得,juede,3020,42,juede,
306,condition1,4,yiwei_contrastive,8,以为,yiwei,5993,43,yiwei,
306,condition1,4,juede_unclear,116,觉得,juede,3289,44,juede,
306,condition1,4,filler,909,画蛇,correct,3518,45,filler,
306,condition1,4,yiwei_unclear,103,以为,yiwei,4608,46,yiwei,
306,condition1,4,yiwei_unclear,110,觉得,juede,8893,47,yiwei,
306,condition1,4,filler,908,拆桥,correct,3353,48,filler,
306,condition1,4,yiwei_contrastive,2,以为,yiwei,4419,49,yiwei,
306,condition1,4,juede_unclear,119,觉得,juede,3452,50,juede,
364,condition1,practice,practice_1,301,bei,correct,,0,NA,
364,condition1,practice,practice_2,302,lai,ambiguous,,0,NA,
364,condition1,practice,practice_3,303,qu,ambiguous,,0,NA,
364,condition1,practice,practice_4,304,ba,correct,,0,NA,
364,condition1,0,yiwei_unclear,103,以为,yiwei,3620,1,yiwei,
364,condition1,0,filler,910,作气,correct,2630,2,filler,
364,condition1,0,yiwei_contrastive,10,觉得,juede,5271,3,yiwei,
364,condition1,0,yiwei_contrastive,9,以为,yiwei,2623,4,yiwei,
364,condition1,0,juede_unclear,113,觉得,juede,3196,5,juede,
364,condition1,0,juede_contrastive,11,觉得,juede,4634,6,juede,
364,condition1,0,juede_contrastive,12,觉得,juede,2895,7,juede,
364,condition1,0,juede_unclear,114,觉得,juede,3741,8,juede,
364,condition1,0,filler,907,谈兵,correct,2760,9,filler,
364,condition1,0,yiwei_unclear,108,觉得,juede,4567,10,yiwei,
364,condition1,1,yiwei_unclear,102,以为,yiwei,4977,11,yiwei,
364,condition1,1,juede_unclear,119,觉得,juede,2585,12,juede,
364,condition1,1,yiwei_contrastive,4,以为,yiwei,3650,13,yiwei,
364,condition1,1,juede_contrastive,18,觉得,juede,5587,14,juede,
364,condition1,1,filler,904,以后,correct,4339,15,filler,
364,condition1,1,yiwei_unclear,107,以为,yiwei,2711,16,yiwei,
364,condition1,1,juede_unclear,120,觉得,juede,3225,17,juede,
364,condition1,1,juede_contrastive,15,以为,yiwei,10636,18,juede,
364,condition1,1,filler,906,点睛,correct,5043,19,filler,
364,condition1,1,yiwei_contrastive,1,觉得,juede,3845,20,yiwei,
364,condition1,2,yiwei_contrastive,6,觉得,juede,4226,21,yiwei,
364,condition1,2,juede_unclear,111,觉得,juede,2337,22,juede,
364,condition1,2,juede_contrastive,17,以为,yiwei,2976,23,juede,
364,condition1,2,juede_unclear,116,觉得,juede,2604,24,juede,
364,condition1,2,yiwei_unclear,110,以为,yiwei,3816,25,yiwei,
364,condition1,2,yiwei_unclear,109,以为,yiwei,2430,26,yiwei,
364,condition1,2,filler,903,以后,correct,2652,27,filler,
364,condition1,2,filler,909,画蛇,correct,2206,28,filler,
364,condition1,2,juede_contrastive,14,以为,yiwei,1747,29,juede,
364,condition1,2,yiwei_contrastive,2,以为,yiwei,2135,30,yiwei,
364,condition1,3,juede_contrastive,16,觉得,juede,2318,31,juede,
364,condition1,3,yiwei_contrastive,7,觉得,juede,2619,32,yiwei,
364,condition1,3,yiwei_unclear,106,觉得,juede,4686,33,yiwei,
364,condition1,3,filler,902,以前,correct,2175,34,filler,
364,condition1,3,juede_unclear,118,觉得,juede,2638,35,juede,
364,condition1,3,filler,905,桃源,correct,2029,36,filler,
364,condition1,3,juede_unclear,115,觉得,juede,3470,37,juede,
364,condition1,3,yiwei_contrastive,8,以为,yiwei,2090,38,yiwei,
364,condition1,3,yiwei_unclear,105,以为,yiwei,2095,39,yiwei,
364,condition1,3,juede_contrastive,13,以为,yiwei,8147,40,juede,
364,condition1,4,yiwei_contrastive,5,觉得,juede,2403,41,yiwei,
364,condition1,4,yiwei_unclear,104,以为,yiwei,3941,42,yiwei,
364,condition1,4,juede_unclear,112,觉得,juede,3658,43,juede,
364,condition1,4,yiwei_unclear,101,以为,yiwei,1983,44,yiwei,
364,condition1,4,filler,908,拆桥,correct,3557,45,filler,
364,condition1,4,juede_contrastive,19,觉得,juede,4370,46,juede,
364,condition1,4,juede_unclear,117,以为,yiwei,4108,47,juede,
364,condition1,4,juede_contrastive,20,觉得,juede,2926,48,juede,
364,condition1,4,filler,901,以前,correct,2923,49,filler,
364,condition1,4,yiwei_contrastive,3,以为,yiwei,5726,50,yiwei,
370,condition1,practice,practice_1,301,bei,correct,,0,NA,
370,condition1,practice,practice_2,302,lai,ambiguous,,0,NA,
370,condition1,practice,practice_3,303,lai,ambiguous,,0,NA,
370,condition1,practice,practice_4,304,ba,correct,,0,NA,
370,condition1,0,yiwei_unclear,107,以为,yiwei,3569,1,yiwei,
370,condition1,0,juede_contrastive,11,觉得,juede,2969,2,juede,
370,condition1,0,yiwei_unclear,110,以为,yiwei,2798,3,yiwei,
370,condition1,0,filler,908,拆桥,correct,4019,4,filler,
370,condition1,0,filler,902,以前,correct,4073,5,filler,
370,condition1,0,yiwei_contrastive,1,觉得,juede,3696,6,yiwei,
370,condition1,0,juede_unclear,116,觉得,juede,3443,7,juede,
370,condition1,0,yiwei_contrastive,9,以为,yiwei,2384,8,yiwei,
370,condition1,0,juede_unclear,111,觉得,juede,3840,9,juede,
370,condition1,0,juede_contrastive,13,以为,yiwei,5078,10,juede,
370,condition1,1,yiwei_unclear,101,以为,yiwei,2640,11,yiwei,
370,condition1,1,filler,904,以后,correct,4591,12,filler,
370,condition1,1,yiwei_unclear,104,觉得,juede,4664,13,yiwei,
370,condition1,1,filler,901,以前,correct,2902,14,filler,
370,condition1,1,juede_unclear,119,觉得,juede,2085,15,juede,
370,condition1,1,juede_contrastive,15,觉得,juede,5468,16,juede,
370,condition1,1,yiwei_contrastive,8,以为,yiwei,2633,17,yiwei,
370,condition1,1,yiwei_contrastive,6,觉得,juede,2242,18,yiwei,
370,condition1,1,juede_unclear,120,觉得,juede,3128,19,juede,
370,condition1,1,juede_contrastive,17,觉得,juede,3127,20,juede,
370,condition1,2,juede_contrastive,16,觉得,juede,3165,21,juede,
370,condition1,2,yiwei_contrastive,7,觉得,juede,1823,22,yiwei,
370,condition1,2,juede_unclear,112,觉得,juede,2407,23,juede,
370,condition1,2,juede_unclear,117,以为,yiwei,4229,24,juede,
370,condition1,2,yiwei_unclear,108,以为,yiwei,2603,25,yiwei,
370,condition1,2,juede_contrastive,14,以为,yiwei,1672,26,juede,
370,condition1,2,filler,906,点睛,correct,2670,27,filler,
370,condition1,2,filler,905,桃源,correct,2145,28,filler,
370,condition1,2,yiwei_contrastive,10,以为,yiwei,2206,29,yiwei,
370,condition1,2,yiwei_unclear,105,以为,yiwei,3179,30,yiwei,
370,condition1,3,yiwei_unclear,102,以为,yiwei,2025,31,yiwei,
370,condition1,3,juede_contrastive,20,觉得,juede,3248,32,juede,
370,condition1,3,yiwei_unclear,109,以为,yiwei,2115,33,yiwei,
370,condition1,3,yiwei_contrastive,4,觉得,juede,2085,34,yiwei,
370,condition1,3,filler,903,以后,correct,2295,35,filler,
370,condition1,3,yiwei_contrastive,2,觉得,juede,1560,36,yiwei,
370,condition1,3,juede_contrastive,12,觉得,juede,1830,37,juede,
370,condition1,3,juede_unclear,118,觉得,juede,4395,38,juede,
370,condition1,3,filler,910,作气,correct,2062,39,filler,
370,condition1,3,juede_unclear,115,觉得,juede,1658,40,juede,
370,condition1,4,filler,907,谈兵,correct,3444,41,filler,
370,condition1,4,juede_unclear,114,觉得,juede,4603,42,juede,
370,condition1,4,juede_contrastive,19,觉得,juede,3473,43,juede,
370,condition1,4,juede_unclear,113,以为,yiwei,3053,44,juede,
370,condition1,4,juede_contrastive,18,觉得,juede,3382,45,juede,
370,condition1,4,filler,909,画蛇,correct,3323,46,filler,
370,condition1,4,yiwei_unclear,103,以为,yiwei,6799,47,yiwei,
370,condition1,4,yiwei_contrastive,5,以为,yiwei,2231,48,yiwei,
370,condition1,4,yiwei_contrastive,3,觉得,juede,3150,49,yiwei,
370,condition1,4,yiwei_unclear,106,以为,yiwei,2490,50,yiwei,
384,condition1,practice,practice_1,301,bei,correct,,0,NA,
384,condition1,practice,practice_2,302,lai,ambiguous,,0,NA,
384,condition1,practice,practice_3,303,qu,ambiguous,,0,NA,
384,condition1,practice,practice_4,304,ba,correct,,0,NA,
384,condition1,0,yiwei_contrastive,7,觉得,juede,13558,1,yiwei,
384,condition1,0,juede_unclear,113,觉得,juede,2140,2,juede,
384,condition1,0,yiwei_contrastive,2,以为,yiwei,4015,3,yiwei,
384,condition1,0,juede_unclear,112,觉得,juede,4869,4,juede,
384,condition1,0,filler,904,以后,correct,8830,5,filler,
384,condition1,0,filler,902,以前,correct,4929,6,filler,
384,condition1,0,juede_contrastive,20,觉得,juede,11825,7,juede,
384,condition1,0,yiwei_unclear,106,觉得,juede,9670,8,yiwei,
384,condition1,0,juede_contrastive,18,以为,yiwei,6133,9,juede,
384,condition1,0,yiwei_unclear,102,以为,yiwei,3280,10,yiwei,
384,condition1,1,juede_contrastive,15,以为,yiwei,10812,11,juede,
384,condition1,1,juede_contrastive,19,觉得,juede,5392,12,juede,
384,condition1,1,yiwei_contrastive,1,以为,yiwei,4840,13,yiwei,
384,condition1,1,yiwei_contrastive,6,以为,yiwei,2674,14,yiwei,
384,condition1,1,yiwei_unclear,104,以为,yiwei,8498,15,yiwei,
384,condition1,1,filler,906,点睛,correct,3531,16,filler,
384,condition1,1,filler,910,作气,correct,2667,17,filler,
384,condition1,1,juede_unclear,111,觉得,juede,3796,18,juede,
384,condition1,1,yiwei_unclear,108,觉得,juede,3307,19,yiwei,
384,condition1,1,juede_unclear,116,觉得,juede,4664,20,juede,
384,condition1,2,yiwei_contrastive,9,以为,yiwei,1814,21,yiwei,
384,condition1,2,yiwei_unclear,109,以为,yiwei,2394,22,yiwei,
384,condition1,2,juede_contrastive,16,觉得,juede,2786,23,juede,
384,condition1,2,yiwei_unclear,105,以为,yiwei,6679,24,yiwei,
384,condition1,2,juede_unclear,118,觉得,juede,3746,25,juede,
384,condition1,2,juede_unclear,115,觉得,juede,2744,26,juede,
384,condition1,2,juede_contrastive,17,以为,yiwei,3070,27,juede,
384,condition1,2,yiwei_contrastive,8,以为,yiwei,6320,28,yiwei,
384,condition1,2,filler,907,谈兵,correct,2081,29,filler,
384,condition1,2,filler,908,拆桥,correct,3402,30,filler,
384,condition1,3,juede_contrastive,13,以为,yiwei,5592,31,juede,
384,condition1,3,yiwei_contrastive,3,以为,yiwei,4564,32,yiwei,
384,condition1,3,yiwei_contrastive,4,以为,yiwei,2192,33,yiwei,
384,condition1,3,filler,903,以后,correct,3014,34,filler,
384,condition1,3,juede_contrastive,14,觉得,juede,2282,35,juede,
384,condition1,3,yiwei_unclear,107,以为,yiwei,1878,36,yiwei,
384,condition1,3,juede_unclear,117,以为,yiwei,3752,37,juede,
384,condition1,3,yiwei_unclear,101,以为,yiwei,3510,38,yiwei,
384,condition1,3,filler,901,以前,correct,5830,39,filler,
384,condition1,3,juede_unclear,114,以为,yiwei,6090,40,juede,
384,condition1,4,yiwei_contrastive,10,以为,yiwei,2278,41,yiwei,
384,condition1,4,juede_unclear,120,觉得,juede,4269,42,juede,
384,condition1,4,juede_contrastive,11,觉得,juede,2861,43,juede,
384,condition1,4,filler,905,桃源,correct,2150,44,filler,
384,condition1,4,juede_contrastive,12,觉得,juede,3506,45,juede,
384,condition1,4,juede_unclear,119,觉得,juede,5210,46,juede,
384,condition1,4,yiwei_contrastive,5,以为,yiwei,1616,47,yiwei,
384,condition1,4,yiwei_unclear,110,以为,yiwei,5530,48,yiwei,
384,condition1,4,yiwei_unclear,103,以为,yiwei,6602,49,yiwei,
384,condition1,4,filler,909,画蛇,correct,4974,50,filler,
380,condition1,practice,practice_1,301,bei,correct,,0,NA,
380,condition1,practice,practice_2,302,lai,ambiguous,,0,NA,
380,condition1,practice,practice_3,303,lai,ambiguous,,0,NA,
380,condition1,practice,practice_4,304,ba,correct,,0,NA,
380,condition1,0,filler,902,以前,correct,6720,1,filler,
380,condition1,0,yiwei_contrastive,6,觉得,juede,8112,2,yiwei,
380,condition1,0,juede_contrastive,19,觉得,juede,9056,3,juede,
380,condition1,0,yiwei_unclear,103,以为,yiwei,10991,4,yiwei,
380,condition1,0,juede_contrastive,12,觉得,juede,4512,5,juede,
380,condition1,0,yiwei_contrastive,9,觉得,juede,9009,6,yiwei,
380,condition1,0,juede_unclear,113,觉得,juede,4648,7,juede,
380,condition1,0,juede_unclear,117,以为,yiwei,5767,8,juede,
380,condition1,0,filler,909,画蛇,correct,11449,9,filler,
380,condition1,0,yiwei_unclear,102,觉得,juede,13343,10,yiwei,
380,condition1,1,juede_unclear,111,觉得,juede,5552,11,juede,
380,condition1,1,filler,903,以后,correct,5257,12,filler,
380,condition1,1,yiwei_contrastive,8,觉得,juede,8096,13,yiwei,
380,condition1,1,filler,908,拆桥,correct,13159,14,filler,
380,condition1,1,yiwei_unclear,105,以为,yiwei,13097,15,yiwei,
380,condition1,1,juede_contrastive,16,觉得,juede,5160,16,juede,
380,condition1,1,juede_contrastive,17,以为,yiwei,9535,17,juede,
380,condition1,1,yiwei_unclear,106,觉得,juede,8561,18,yiwei,
380,condition1,1,yiwei_contrastive,5,以为,yiwei,7280,19,yiwei,
380,condition1,1,juede_unclear,114,觉得,juede,8776,20,juede,
380,condition1,2,yiwei_unclear,101,以为,yiwei,6704,21,yiwei,
380,condition1,2,yiwei_unclear,108,以为,yiwei,18792,22,yiwei,
380,condition1,2,juede_unclear,115,觉得,juede,4551,23,juede,
380,condition1,2,filler,910,作力,incorrect,10720,24,filler,
380,condition1,2,filler,906,点睛,correct,9552,25,filler,
380,condition1,2,yiwei_contrastive,4,以为,yiwei,6872,26,yiwei,
380,condition1,2,juede_contrastive,11,觉得,juede,6024,27,juede,
380,condition1,2,yiwei_contrastive,2,以为,yiwei,4440,28,yiwei,
380,condition1,2,juede_contrastive,18,觉得,juede,7904,29,juede,
380,condition1,2,juede_unclear,112,觉得,juede,5848,30,juede,
380,condition1,3,yiwei_unclear,109,以为,yiwei,4096,31,yiwei,
380,condition1,3,juede_contrastive,15,觉得,juede,19919,32,juede,
380,condition1,3,juede_contrastive,14,以为,yiwei,7104,33,juede,
380,condition1,3,filler,904,以后,correct,7344,34,filler,
380,condition1,3,yiwei_contrastive,7,觉得,juede,5007,35,yiwei,
380,condition1,3,yiwei_contrastive,1,以为,yiwei,12359,36,yiwei,
380,condition1,3,filler,905,花园,incorrect,7255,37,filler,
380,condition1,3,juede_unclear,116,觉得,juede,12343,38,juede,
380,condition1,3,yiwei_unclear,107,以为,yiwei,19177,39,yiwei,
380,condition1,3,juede_unclear,120,觉得,juede,12823,40,juede,
380,condition1,4,yiwei_contrastive,3,以为,yiwei,13193,41,yiwei,
380,condition1,4,yiwei_contrastive,10,觉得,juede,12848,42,yiwei,
380,condition1,4,yiwei_unclear,104,以为,yiwei,8960,43,yiwei,
380,condition1,4,filler,907,谈兵,correct,10199,44,filler,
380,condition1,4,filler,901,以前,correct,7023,45,filler,
380,condition1,4,juede_contrastive,20,觉得,juede,7393,46,juede,
380,condition1,4,yiwei_unclear,110,以为,yiwei,15071,47,yiwei,
380,condition1,4,juede_unclear,118,觉得,juede,12216,48,juede,
380,condition1,4,juede_contrastive,13,以为,yiwei,10921,49,juede,
380,condition1,4,juede_unclear,119,觉得,juede,19303,50,juede,
378,condition1,practice,practice_1,301,bei,correct,,0,NA,
378,condition1,practice,practice_2,302,lai,ambiguous,,0,NA,
378,condition1,practice,practice_3,303,lai,ambiguous,,0,NA,
378,condition1,practice,practice_4,304,ba,correct,,0,NA,
378,condition1,0,juede_contrastive,11,觉得,juede,6160,1,juede,
378,condition1,0,filler,908,拆桥,correct,4216,2,filler,
378,condition1,0,juede_unclear,115,觉得,juede,5464,3,juede,
378,condition1,0,yiwei_unclear,109,以为,yiwei,3040,4,yiwei,
378,condition1,0,juede_unclear,117,以为,yiwei,4328,5,juede,
378,condition1,0,yiwei_contrastive,3,觉得,juede,5840,6,yiwei,
378,condition1,0,juede_contrastive,16,觉得,juede,5776,7,juede,
378,condition1,0,filler,905,桃源,correct,3792,8,filler,
378,condition1,0,yiwei_unclear,107,以为,yiwei,6184,9,yiwei,
378,condition1,0,yiwei_contrastive,4,觉得,juede,6320,10,yiwei,
378,condition1,1,juede_contrastive,12,觉得,juede,5280,11,juede,
378,condition1,1,juede_contrastive,18,以为,yiwei,7072,12,juede,
378,condition1,1,filler,906,点睛,correct,4992,13,filler,
378,condition1,1,yiwei_contrastive,9,觉得,juede,3376,14,yiwei,
378,condition1,1,yiwei_unclear,103,以为,yiwei,7552,15,yiwei,
378,condition1,1,juede_unclear,112,觉得,juede,6720,16,juede,
378,condition1,1,yiwei_unclear,106,觉得,juede,6024,17,yiwei,
378,condition1,1,yiwei_contrastive,7,以为,yiwei,4400,18,yiwei,
378,condition1,1,juede_unclear,119,觉得,juede,5544,19,juede,
378,condition1,1,filler,904,以后,correct,6320,20,filler,
378,condition1,2,filler,909,画蛇,correct,3864,21,filler,
378,condition1,2,juede_unclear,113,觉得,juede,3664,22,juede,
378,condition1,2,yiwei_contrastive,6,以为,yiwei,5272,23,yiwei,
378,condition1,2,yiwei_contrastive,10,以为,yiwei,4928,24,yiwei,
378,condition1,2,juede_contrastive,13,以为,yiwei,11808,25,juede,
378,condition1,2,juede_contrastive,14,以为,yiwei,4720,26,juede,
378,condition1,2,juede_unclear,116,觉得,juede,6400,27,juede,
378,condition1,2,filler,910,作气,correct,6120,28,filler,
378,condition1,2,yiwei_unclear,110,以为,yiwei,7280,29,yiwei,
378,condition1,2,yiwei_unclear,104,以为,yiwei,23512,30,yiwei,
378,condition1,3,filler,907,谈兵,correct,3336,31,filler,
378,condition1,3,juede_contrastive,20,觉得,juede,7160,32,juede,
378,condition1,3,juede_unclear,120,觉得,juede,5304,33,juede,
378,condition1,3,juede_unclear,111,觉得,juede,3527,34,juede,
378,condition1,3,filler,901,以前,correct,4769,35,filler,
378,condition1,3,juede_contrastive,15,以为,yiwei,9648,36,juede,
378,condition1,3,yiwei_contrastive,1,以为,yiwei,6159,37,yiwei,
378,condition1,3,yiwei_unclear,105,以为,yiwei,6385,38,yiwei,
378,condition1,3,yiwei_unclear,108,觉得,juede,5472,39,yiwei,
378,condition1,3,yiwei_contrastive,5,以为,yiwei,3728,40,yiwei,
378,condition1,4,yiwei_contrastive,8,觉得,juede,4344,41,yiwei,
378,condition1,4,yiwei_unclear,101,以为,yiwei,3367,42,yiwei,
378,condition1,4,juede_unclear,118,觉得,juede,4960,43,juede,
378,condition1,4,juede_contrastive,17,以为,yiwei,8448,44,juede,
378,condition1,4,filler,902,以前,correct,3272,45,filler,
378,condition1,4,yiwei_unclear,102,以为,yiwei,4312,46,yiwei,
378,condition1,4,yiwei_contrastive,2,以为,yiwei,3832,47,yiwei,
378,condition1,4,juede_unclear,114,觉得,juede,9896,48,juede,
378,condition1,4,juede_contrastive,19,觉得,juede,4432,49,juede,
378,condition1,4,filler,903,以后,correct,3824,50,filler,
372,condition1,practice,practice_1,301,bei,correct,,0,NA,
372,condition1,practice,practice_2,302,lai,ambiguous,,0,NA,
372,condition1,practice,practice_3,303,lai,ambiguous,,0,NA,
372,condition1,practice,practice_4,304,ba,correct,,0,NA,
372,condition1,0,juede_contrastive,15,觉得,juede,9420,1,juede,
372,condition1,0,juede_contrastive,14,觉得,juede,8741,2,juede,
372,condition1,0,yiwei_unclear,102,以为,yiwei,5941,3,yiwei,
372,condition1,0,yiwei_contrastive,1,以为,yiwei,3075,4,yiwei,
372,condition1,0,filler,901,以前,correct,6749,5,filler,
372,condition1,0,filler,907,谈兵,correct,2476,6,filler,
372,condition1,0,yiwei_contrastive,2,以为,yiwei,3116,7,yiwei,
372,condition1,0,juede_unclear,112,觉得,juede,4766,8,juede,
372,condition1,0,juede_unclear,114,以为,yiwei,8784,9,juede,
372,condition1,0,yiwei_unclear,104,以为,yiwei,7795,10,yiwei,
372,condition1,1,filler,903,以后,correct,4479,11,filler,
372,condition1,1,juede_unclear,113,觉得,juede,4934,12,juede,
372,condition1,1,yiwei_unclear,109,以为,yiwei,3232,13,yiwei,
372,condition1,1,yiwei_contrastive,9,以为,yiwei,6603,14,yiwei,
372,condition1,1,yiwei_unclear,106,觉得,juede,6163,15,yiwei,
372,condition1,1,juede_unclear,120,觉得,juede,11766,16,juede,
372,condition1,1,yiwei_contrastive,10,以为,yiwei,4024,17,yiwei,
372,condition1,1,filler,902,以前,correct,3509,18,filler,
372,condition1,1,juede_contrastive,12,觉得,juede,3308,19,juede,
372,condition1,1,juede_contrastive,13,以为,yiwei,5384,20,juede,
372,condition1,2,yiwei_unclear,105,以为,yiwei,7849,21,yiwei,
372,condition1,2,juede_unclear,115,觉得,juede,4900,22,juede,
372,condition1,2,juede_unclear,118,觉得,juede,7833,23,juede,
372,condition1,2,yiwei_contrastive,8,以为,yiwei,4175,24,yiwei,
372,condition1,2,yiwei_unclear,110,以为,yiwei,13475,25,yiwei,
372,condition1,2,filler,908,拆桥,correct,4091,26,filler,
372,condition1,2,juede_contrastive,17,觉得,juede,7009,27,juede,
372,condition1,2,yiwei_contrastive,7,觉得,juede,4316,28,yiwei,
372,condition1,2,juede_contrastive,18,以为,yiwei,5524,29,juede,
372,condition1,2,filler,904,以后,correct,5841,30,filler,
372,condition1,3,juede_contrastive,20,觉得,juede,5193,31,juede,
372,condition1,3,juede_unclear,119,觉得,juede,5175,32,juede,
372,condition1,3,yiwei_unclear,103,以为,yiwei,5616,33,yiwei,
372,condition1,3,filler,909,画蛇,correct,4242,34,filler,
372,condition1,3,yiwei_contrastive,5,以为,yiwei,2642,35,yiwei,
372,condition1,3,juede_unclear,117,以为,yiwei,3675,36,juede,
372,condition1,3,yiwei_contrastive,3,以为,yiwei,5350,37,yiwei,
372,condition1,3,juede_contrastive,11,觉得,juede,3474,38,juede,
372,condition1,3,filler,905,桃源,correct,2292,39,filler,
372,condition1,3,yiwei_unclear,108,觉得,juede,10982,40,yiwei,
372,condition1,4,juede_unclear,111,觉得,juede,3121,41,juede,
372,condition1,4,filler,910,作气,correct,2988,42,filler,
372,condition1,4,yiwei_unclear,107,以为,yiwei,4658,43,yiwei,
372,condition1,4,juede_contrastive,16,觉得,juede,7651,44,juede,
372,condition1,4,yiwei_contrastive,4,以为,yiwei,3991,45,yiwei,
372,condition1,4,yiwei_contrastive,6,以为,yiwei,4858,46,yiwei,
372,condition1,4,filler,906,点睛,correct,4691,47,filler,
372,condition1,4,yiwei_unclear,101,以为,yiwei,3906,48,yiwei,
372,condition1,4,juede_contrastive,19,觉得,juede,5198,49,juede,
372,condition1,4,juede_unclear,116,觉得,juede,5604,50,juede,
348,condition1,practice,practice_1,301,bei,correct,,0,NA,
348,condition1,practice,practice_2,302,lai,ambiguous,,0,NA,
348,condition1,practice,practice_3,303,lai,ambiguous,,0,NA,
348,condition1,practice,practice_4,304,ba,correct,,0,NA,
348,condition1,0,filler,904,以后,correct,3970,1,filler,
348,condition1,0,yiwei_contrastive,10,以为,yiwei,2651,2,yiwei,
348,condition1,0,juede_unclear,112,觉得,juede,3719,3,juede,
348,condition1,0,juede_contrastive,17,以为,yiwei,5152,4,juede,
348,condition1,0,yiwei_unclear,107,以为,yiwei,3305,5,yiwei,
348,condition1,0,filler,908,拆桥,correct,3583,6,filler,
348,condition1,0,yiwei_unclear,108,以为,yiwei,5172,7,yiwei,
348,condition1,0,yiwei_contrastive,7,以为,yiwei,7514,8,yiwei,
348,condition1,0,juede_contrastive,20,觉得,juede,3975,9,juede,
348,condition1,0,juede_unclear,114,以为,yiwei,4688,10,juede,
348,condition1,1,juede_unclear,119,觉得,juede,2773,11,juede,
348,condition1,1,yiwei_unclear,105,以为,yiwei,4252,12,yiwei,
348,condition1,1,filler,906,点睛,correct,4884,13,filler,
348,condition1,1,filler,901,以前,correct,3744,14,filler,
348,condition1,1,juede_contrastive,14,以为,yiwei,3383,15,juede,
348,condition1,1,juede_unclear,115,觉得,juede,4024,16,juede,
348,condition1,1,yiwei_unclear,110,以为,yiwei,5261,17,yiwei,
348,condition1,1,yiwei_contrastive,9,觉得,juede,3267,18,yiwei,
348,condition1,1,juede_contrastive,19,觉得,juede,2984,19,juede,
348,condition1,1,yiwei_contrastive,6,以为,yiwei,2235,20,yiwei,
348,condition1,2,juede_unclear,120,以为,yiwei,5357,21,juede,
348,condition1,2,juede_unclear,113,觉得,juede,2480,22,juede,
348,condition1,2,yiwei_contrastive,5,以为,yiwei,2034,23,yiwei,
348,condition1,2,yiwei_unclear,109,以为,yiwei,2350,24,yiwei,
348,condition1,2,juede_contrastive,13,觉得,juede,6544,25,juede,
348,condition1,2,filler,902,以前,correct,3524,26,filler,
348,condition1,2,filler,909,画蛇,correct,2896,27,filler,
348,condition1,2,yiwei_contrastive,8,以为,yiwei,3058,28,yiwei,
348,condition1,2,yiwei_unclear,106,觉得,juede,4393,29,yiwei,
348,condition1,2,juede_contrastive,16,觉得,juede,2766,30,juede,
348,condition1,3,juede_unclear,116,觉得,juede,4412,31,juede,
348,condition1,3,yiwei_contrastive,4,以为,yiwei,2840,32,yiwei,
348,condition1,3,yiwei_unclear,101,以为,yiwei,2728,33,yiwei,
348,condition1,3,juede_unclear,118,觉得,juede,3348,34,juede,
348,condition1,3,yiwei_contrastive,3,以为,yiwei,6289,35,yiwei,
348,condition1,3,filler,910,作气,correct,2181,36,filler,
348,condition1,3,filler,903,以后,correct,4186,37,filler,
348,condition1,3,yiwei_unclear,102,以为,yiwei,6576,38,yiwei,
348,condition1,3,juede_contrastive,12,觉得,juede,1852,39,juede,
348,condition1,3,juede_contrastive,11,觉得,juede,4635,40,juede,
348,condition1,4,juede_contrastive,15,以为,yiwei,7028,41,juede,
348,condition1,4,filler,905,桃源,correct,2514,42,filler,
348,condition1,4,juede_unclear,111,觉得,juede,2554,43,juede,
348,condition1,4,filler,907,谈兵,correct,3141,44,filler,
348,condition1,4,yiwei_unclear,104,以为,yiwei,4883,45,yiwei,
348,condition1,4,juede_contrastive,18,以为,yiwei,3888,46,juede,
348,condition1,4,yiwei_contrastive,1,觉得,juede,3968,47,yiwei,
348,condition1,4,juede_unclear,117,以为,yiwei,2866,48,juede,
348,condition1,4,yiwei_contrastive,2,以为,yiwei,3396,49,yiwei,
348,condition1,4,yiwei_unclear,103,以为,yiwei,4788,50,yiwei,
363,condition1,practice,practice_1,301,bei,correct,,0,NA,
363,condition1,practice,practice_2,302,lai,ambiguous,,0,NA,
363,condition1,practice,practice_3,303,lai,ambiguous,,0,NA,
363,condition1,practice,practice_4,304,ba,correct,,0,NA,
363,condition1,0,juede_unclear,118,觉得,juede,15803,1,juede,
363,condition1,0,filler,902,以前,correct,6118,2,filler,
363,condition1,0,yiwei_unclear,101,以为,yiwei,9522,3,yiwei,
363,condition1,0,juede_contrastive,14,觉得,juede,9809,4,juede,
363,condition1,0,yiwei_contrastive,2,觉得,juede,32291,5,yiwei,
363,condition1,0,filler,909,画龙,incorrect,21186,6,filler,
363,condition1,0,yiwei_contrastive,3,觉得,juede,13208,7,yiwei,
363,condition1,0,yiwei_unclear,104,觉得,juede,31672,8,yiwei,
363,condition1,0,juede_contrastive,18,觉得,juede,13814,9,juede,
363,condition1,0,juede_unclear,117,以为,yiwei,24983,10,juede,
363,condition1,1,yiwei_contrastive,7,觉得,juede,16169,11,yiwei,
363,condition1,1,juede_unclear,119,觉得,juede,9787,12,juede,
363,condition1,1,yiwei_contrastive,10,以为,yiwei,7747,13,yiwei,
363,condition1,1,juede_unclear,116,觉得,juede,11433,14,juede,
363,condition1,1,juede_contrastive,19,觉得,juede,10828,15,juede,
363,condition1,1,yiwei_unclear,110,以为,yiwei,11282,16,yiwei,
363,condition1,1,yiwei_unclear,105,觉得,juede,126876,17,yiwei,
363,condition1,1,juede_contrastive,13,以为,yiwei,20731,18,juede,
363,condition1,1,filler,905,桃源,correct,26082,19,filler,
363,condition1,1,filler,904,以后,correct,11388,20,filler,
363,condition1,2,filler,906,加眼,incorrect,18909,21,filler,
363,condition1,2,yiwei_contrastive,8,以为,yiwei,13046,22,yiwei,
363,condition1,2,yiwei_unclear,102,觉得,juede,9654,23,yiwei,
363,condition1,2,juede_unclear,113,觉得,juede,10213,24,juede,
363,condition1,2,yiwei_unclear,109,以为,yiwei,4676,25,yiwei,
363,condition1,2,juede_unclear,111,觉得,juede,13566,26,juede,
363,condition1,2,filler,907,说兵,incorrect,18506,27,filler,
363,condition1,2,yiwei_contrastive,6,以为,yiwei,5105,28,yiwei,
363,condition1,2,juede_contrastive,17,以为,yiwei,13854,29,juede,
363,condition1,2,juede_contrastive,12,觉得,juede,4215,30,juede,
363,condition1,3,juede_unclear,115,觉得,juede,12300,31,juede,
363,condition1,3,yiwei_contrastive,4,以为,yiwei,7793,32,yiwei,
363,condition1,3,yiwei_unclear,106,以为,yiwei,15696,33,yiwei,
363,condition1,3,filler,903,以后,correct,8377,34,filler,
363,condition1,3,juede_unclear,114,觉得,juede,15058,35,juede,
363,condition1,3,yiwei_contrastive,5,以为,yiwei,6745,36,yiwei,
363,condition1,3,juede_contrastive,11,觉得,juede,53736,37,juede,
363,condition1,3,filler,901,以前,correct,6387,38,filler,
363,condition1,3,juede_contrastive,16,觉得,juede,12975,39,juede,
363,condition1,3,yiwei_unclear,107,以为,yiwei,8904,40,yiwei,
363,condition1,4,yiwei_contrastive,1,觉得,juede,7688,41,yiwei,
363,condition1,4,yiwei_contrastive,9,觉得,juede,7646,42,yiwei,
363,condition1,4,yiwei_unclear,108,觉得,juede,7200,43,yiwei,
363,condition1,4,juede_unclear,120,觉得,juede,8863,44,juede,
363,condition1,4,juede_contrastive,15,觉得,juede,10887,45,juede,
363,condition1,4,juede_unclear,112,觉得,juede,6057,46,juede,
363,condition1,4,filler,908,拆桥,correct,7263,47,filler,
363,condition1,4,juede_contrastive,20,觉得,juede,7511,48,juede,
363,condition1,4,yiwei_unclear,103,觉得,juede,11978,49,yiwei,
363,condition1,4,filler,910,作力,incorrect,14682,50,filler,
358,condition1,practice,practice_1,301,bei,correct,,0,NA,
358,condition1,practice,practice_2,302,qu,ambiguous,,0,NA,
358,condition1,practice,practice_3,303,qu,ambiguous,,0,NA,
358,condition1,practice,practice_4,304,ba,correct,,0,NA,
358,condition1,0,filler,906,点睛,correct,5568,1,filler,
358,condition1,0,juede_unclear,120,觉得,juede,5196,2,juede,
358,condition1,0,yiwei_contrastive,6,觉得,juede,3267,3,yiwei,
358,condition1,0,juede_unclear,113,觉得,juede,7680,4,juede,
358,condition1,0,yiwei_unclear,102,以为,yiwei,4287,5,yiwei,
358,condition1,0,yiwei_contrastive,10,以为,yiwei,2645,6,yiwei,
358,condition1,0,juede_contrastive,11,觉得,juede,3775,7,juede,
358,condition1,0,juede_contrastive,13,以为,yiwei,5360,8,juede,
358,condition1,0,filler,902,以前,correct,2999,9,filler,
358,condition1,0,yiwei_unclear,101,以为,yiwei,3013,10,yiwei,
358,condition1,1,filler,907,谈兵,correct,2479,11,filler,
358,condition1,1,juede_contrastive,17,以为,yiwei,2949,12,juede,
358,condition1,1,juede_unclear,116,觉得,juede,4725,13,juede,
358,condition1,1,yiwei_unclear,110,以为,yiwei,8613,14,yiwei,
358,condition1,1,yiwei_contrastive,9,以为,yiwei,2446,15,yiwei,
358,condition1,1,filler,910,作气,correct,2783,16,filler,
358,condition1,1,yiwei_contrastive,1,觉得,juede,3823,17,yiwei,
358,condition1,1,yiwei_unclear,104,以为,yiwei,4655,18,yiwei,
358,condition1,1,juede_contrastive,14,觉得,juede,2838,19,juede,
358,condition1,1,juede_unclear,111,觉得,juede,2635,20,juede,
358,condition1,2,filler,905,桃源,correct,2942,21,filler,
358,condition1,2,yiwei_contrastive,5,以为,yiwei,4886,22,yiwei,
358,condition1,2,yiwei_contrastive,7,以为,yiwei,2606,23,yiwei,
358,condition1,2,yiwei_unclear,109,以为,yiwei,2402,24,yiwei,
358,condition1,2,juede_unclear,119,觉得,juede,3237,25,juede,
358,condition1,2,juede_contrastive,19,觉得,juede,3694,26,juede,
358,condition1,2,yiwei_unclear,103,以为,yiwei,3310,27,yiwei,
358,condition1,2,juede_contrastive,16,觉得,juede,4968,28,juede,
358,condition1,2,filler,909,画蛇,correct,2729,29,filler,
358,condition1,2,juede_unclear,118,觉得,juede,3386,30,juede,
358,condition1,3,yiwei_contrastive,3,以为,yiwei,5473,31,yiwei,
358,condition1,3,filler,908,拆桥,correct,3129,32,filler,
358,condition1,3,juede_unclear,117,以为,yiwei,3988,33,juede,
358,condition1,3,yiwei_contrastive,8,觉得,juede,2770,34,yiwei,
358,condition1,3,yiwei_unclear,105,以为,yiwei,3632,35,yiwei,
358,condition1,3,filler,904,以后,correct,4418,36,filler,
358,condition1,3,juede_unclear,114,觉得,juede,7483,37,juede,
358,condition1,3,juede_contrastive,12,觉得,juede,2425,38,juede,
358,condition1,3,yiwei_unclear,106,觉得,juede,3273,39,yiwei,
358,condition1,3,juede_contrastive,20,觉得,juede,6271,40,juede,
358,condition1,4,juede_unclear,115,觉得,juede,3835,41,juede,
358,condition1,4,filler,903,以后,correct,9397,42,filler,
358,condition1,4,filler,901,以前,correct,3814,43,filler,
358,condition1,4,yiwei_unclear,107,以为,yiwei,4541,44,yiwei,
358,condition1,4,juede_contrastive,15,觉得,juede,6407,45,juede,
358,condition1,4,yiwei_contrastive,4,觉得,juede,2731,46,yiwei,
358,condition1,4,yiwei_unclear,108,觉得,juede,2806,47,yiwei,
358,condition1,4,yiwei_contrastive,2,觉得,juede,3311,48,yiwei,
358,condition1,4,juede_contrastive,18,以为,yiwei,3883,49,juede,
358,condition1,4,juede_unclear,112,觉得,juede,3000,50,juede,
340,condition1,practice,practice_1,301,bei,correct,,0,NA,
340,condition1,practice,practice_2,302,lai,ambiguous,,0,NA,
340,condition1,practice,practice_3,303,lai,ambiguous,,0,NA,
340,condition1,practice,practice_4,304,ba,correct,,0,NA,
340,condition1,0,filler,902,以前,correct,3397,1,filler,
340,condition1,0,juede_unclear,114,觉得,juede,5783,2,juede,
340,condition1,0,juede_contrastive,16,觉得,juede,3515,3,juede,
340,condition1,0,yiwei_unclear,108,以为,yiwei,4616,4,yiwei,
340,condition1,0,yiwei_contrastive,6,觉得,juede,3767,5,yiwei,
340,condition1,0,juede_contrastive,14,觉得,juede,3366,6,juede,
340,condition1,0,filler,903,以后,correct,2834,7,filler,
340,condition1,0,yiwei_unclear,109,以为,yiwei,3032,8,yiwei,
340,condition1,0,juede_unclear,116,觉得,juede,3282,9,juede,
340,condition1,0,yiwei_contrastive,1,以为,yiwei,3032,10,yiwei,
340,condition1,1,filler,909,画蛇,correct,3216,11,filler,
340,condition1,1,juede_contrastive,12,觉得,juede,2217,12,juede,
340,condition1,1,yiwei_contrastive,3,以为,yiwei,5501,13,yiwei,
340,condition1,1,juede_contrastive,13,以为,yiwei,4349,14,juede,
340,condition1,1,yiwei_contrastive,5,以为,yiwei,2717,15,yiwei,
340,condition1,1,filler,901,以前,correct,3783,16,filler,
340,condition1,1,juede_unclear,111,觉得,juede,2750,17,juede,
340,condition1,1,juede_unclear,113,觉得,juede,2934,18,juede,
340,condition1,1,yiwei_unclear,101,以为,yiwei,2699,19,yiwei,
340,condition1,1,yiwei_unclear,102,以为,yiwei,3116,20,yiwei,
340,condition1,2,yiwei_unclear,105,以为,yiwei,5851,21,yiwei,
340,condition1,2,yiwei_contrastive,10,以为,yiwei,2851,22,yiwei,
340,condition1,2,juede_contrastive,20,觉得,juede,5451,23,juede,
340,condition1,2,juede_unclear,118,觉得,juede,3466,24,juede,
340,condition1,2,juede_contrastive,15,以为,yiwei,6950,25,juede,
340,condition1,2,filler,908,拆桥,correct,2850,26,filler,
340,condition1,2,yiwei_contrastive,8,觉得,juede,3201,27,yiwei,
340,condition1,2,yiwei_unclear,103,以为,yiwei,6092,28,yiwei,
340,condition1,2,filler,906,点睛,correct,2837,29,filler,
340,condition1,2,juede_unclear,117,以为,yiwei,3317,30,juede,
340,condition1,3,filler,907,谈兵,correct,2334,31,filler,
340,condition1,3,yiwei_contrastive,9,觉得,juede,2900,32,yiwei,
340,condition1,3,yiwei_contrastive,4,以为,yiwei,2417,33,yiwei,
340,condition1,3,juede_contrastive,18,以为,yiwei,2603,34,juede,
340,condition1,3,juede_unclear,112,觉得,juede,3733,35,juede,
340,condition1,3,filler,904,以后,correct,3047,36,filler,
340,condition1,3,yiwei_unclear,106,觉得,juede,3183,37,yiwei,
340,condition1,3,juede_unclear,115,觉得,juede,2419,38,juede,
340,condition1,3,juede_contrastive,11,觉得,juede,2768,39,juede,
340,condition1,3,yiwei_unclear,104,以为,yiwei,3212,40,yiwei,
340,condition1,4,filler,910,作气,correct,2283,41,filler,
340,condition1,4,juede_unclear,120,觉得,juede,2751,42,juede,
340,condition1,4,yiwei_contrastive,2,以为,yiwei,2399,43,yiwei,
340,condition1,4,yiwei_unclear,107,以为,yiwei,2736,44,yiwei,
340,condition1,4,yiwei_unclear,110,觉得,juede,3252,45,yiwei,
340,condition1,4,juede_contrastive,17,以为,yiwei,4416,46,juede,
340,condition1,4,yiwei_contrastive,7,以为,yiwei,2284,47,yiwei,
340,condition1,4,filler,905,桃源,correct,2445,48,filler,
340,condition1,4,juede_unclear,119,觉得,juede,2518,49,juede,
340,condition1,4,juede_contrastive,19,觉得,juede,3388,50,juede,
351,condition1,practice,practice_1,301,bei,correct,,0,NA,
351,condition1,practice,practice_2,302,lai,ambiguous,,0,NA,
351,condition1,practice,practice_3,303,qu,ambiguous,,0,NA,
351,condition1,practice,practice_4,304,ba,correct,,0,NA,
351,condition1,0,juede_unclear,116,觉得,juede,9732,1,juede,
351,condition1,0,juede_contrastive,13,以为,yiwei,22915,2,juede,
351,condition1,0,yiwei_unclear,102,以为,yiwei,5200,3,yiwei,
351,condition1,0,juede_contrastive,18,觉得,juede,6483,4,juede,
351,condition1,0,yiwei_unclear,103,以为,yiwei,11517,5,yiwei,
351,condition1,0,yiwei_contrastive,6,觉得,juede,7799,6,yiwei,
351,condition1,0,juede_unclear,113,觉得,juede,3116,7,juede,
351,condition1,0,filler,909,画蛇,correct,35300,8,filler,
351,condition1,0,yiwei_contrastive,7,以为,yiwei,7966,9,yiwei,
351,condition1,0,filler,910,作气,correct,9016,10,filler,
351,condition1,1,yiwei_unclear,109,以为,yiwei,2549,11,yiwei,
351,condition1,1,filler,908,拆桥,correct,15466,12,filler,
351,condition1,1,juede_unclear,115,觉得,juede,7450,13,juede,
351,condition1,1,juede_contrastive,20,觉得,juede,7516,14,juede,
351,condition1,1,juede_unclear,114,以为,yiwei,10649,15,juede,
351,condition1,1,juede_contrastive,11,觉得,juede,12566,16,juede,
351,condition1,1,filler,901,以前,correct,9916,17,filler,
351,condition1,1,yiwei_contrastive,9,觉得,juede,4333,18,yiwei,
351,condition1,1,yiwei_contrastive,2,以为,yiwei,5401,19,yiwei,
351,condition1,1,yiwei_unclear,108,以为,yiwei,15133,20,yiwei,
351,condition1,2,filler,907,谈兵,correct,28765,21,filler,
351,condition1,2,juede_contrastive,16,觉得,juede,5167,22,juede,
351,condition1,2,yiwei_contrastive,8,以为,yiwei,7800,23,yiwei,
351,condition1,2,juede_contrastive,14,觉得,juede,3100,24,juede,
351,condition1,2,filler,906,点睛,correct,11200,25,filler,
351,condition1,2,juede_unclear,111,觉得,juede,4983,26,juede,
351,condition1,2,yiwei_unclear,110,以为,yiwei,6899,27,yiwei,
351,condition1,2,yiwei_unclear,101,觉得,juede,5533,28,yiwei,
351,condition1,2,juede_unclear,119,觉得,juede,15367,29,juede,
351,condition1,2,yiwei_contrastive,5,以为,yiwei,5100,30,yiwei,
351,condition1,3,yiwei_contrastive,4,以为,yiwei,5199,31,yiwei,
351,condition1,3,yiwei_unclear,104,以为,yiwei,9716,32,yiwei,
351,condition1,3,juede_contrastive,12,觉得,juede,4217,33,juede,
351,condition1,3,yiwei_contrastive,1,觉得,juede,7601,34,yiwei,
351,condition1,3,filler,902,以前,correct,5049,35,filler,
351,condition1,3,juede_unclear,112,觉得,juede,4184,36,juede,
351,condition1,3,filler,905,桃源,correct,17432,37,filler,
351,condition1,3,yiwei_unclear,106,觉得,juede,8482,38,yiwei,
351,condition1,3,juede_contrastive,15,以为,yiwei,9549,39,juede,
351,condition1,3,juede_unclear,120,觉得,juede,4118,40,juede,
351,condition1,4,yiwei_unclear,107,觉得,juede,5915,41,yiwei,
351,condition1,4,juede_unclear,117,以为,yiwei,5569,42,juede,
351,condition1,4,juede_unclear,118,觉得,juede,7098,43,juede,
351,condition1,4,yiwei_contrastive,3,以为,yiwei,7217,44,yiwei,
351,condition1,4,filler,904,以后,correct,7500,45,filler,
351,condition1,4,yiwei_unclear,105,以为,yiwei,6533,46,yiwei,
351,condition1,4,juede_contrastive,17,以为,yiwei,4967,47,juede,
351,condition1,4,yiwei_contrastive,10,以为,yiwei,6499,48,yiwei,
351,condition1,4,juede_contrastive,19,觉得,juede,5934,49,juede,
351,condition1,4,filler,903,以后,correct,5033,50,filler,
343,condition1,practice,practice_1,301,bei,correct,,0,NA,
343,condition1,practice,practice_2,302,lai,ambiguous,,0,NA,
343,condition1,practice,practice_3,303,qu,ambiguous,,0,NA,
343,condition1,practice,practice_4,304,ba,correct,,0,NA,
343,condition1,0,juede_unclear,112,觉得,juede,3753,1,juede,
343,condition1,0,filler,907,谈兵,correct,2783,2,filler,
343,condition1,0,filler,901,以前,correct,5547,3,filler,
343,condition1,0,yiwei_unclear,108,以为,yiwei,8895,4,yiwei,
343,condition1,0,juede_contrastive,18,觉得,juede,5531,5,juede,
343,condition1,0,yiwei_contrastive,7,觉得,juede,9743,6,yiwei,
343,condition1,0,yiwei_contrastive,6,觉得,juede,5129,7,yiwei,
343,condition1,0,juede_unclear,114,觉得,juede,6315,8,juede,
343,condition1,0,juede_contrastive,12,觉得,juede,4395,9,juede,
343,condition1,0,yiwei_unclear,109,以为,yiwei,3482,10,yiwei,
343,condition1,1,yiwei_contrastive,4,以为,yiwei,6262,11,yiwei,
343,condition1,1,juede_contrastive,19,觉得,juede,3910,12,juede,
343,condition1,1,yiwei_unclear,103,以为,yiwei,5718,13,yiwei,
343,condition1,1,juede_contrastive,16,觉得,juede,4547,14,juede,
343,condition1,1,juede_unclear,120,以为,yiwei,5531,15,juede,
343,condition1,1,yiwei_contrastive,3,觉得,juede,6263,16,yiwei,
343,condition1,1,filler,910,作气,correct,3316,17,filler,
343,condition1,1,filler,909,画蛇,correct,2762,18,filler,
343,condition1,1,juede_unclear,115,以为,yiwei,5749,19,juede,
343,condition1,1,yiwei_unclear,102,以为,yiwei,3347,20,yiwei,
343,condition1,2,yiwei_contrastive,2,以为,yiwei,3182,21,yiwei,
343,condition1,2,yiwei_contrastive,5,觉得,juede,7892,22,yiwei,
343,condition1,2,filler,904,以后,correct,5299,23,filler,
343,condition1,2,yiwei_unclear,101,以为,yiwei,5364,24,yiwei,
343,condition1,2,filler,908,拆桥,correct,3181,25,filler,
343,condition1,2,juede_contrastive,20,觉得,juede,4748,26,juede,
343,condition1,2,juede_contrastive,14,以为,yiwei,4364,27,juede,
343,condition1,2,juede_unclear,116,觉得,juede,4364,28,juede,
343,condition1,2,juede_unclear,119,觉得,juede,6499,29,juede,
343,condition1,2,yiwei_unclear,104,觉得,juede,4797,30,yiwei,
343,condition1,3,filler,905,桃源,correct,2615,31,filler,
343,condition1,3,yiwei_unclear,107,觉得,juede,4981,32,yiwei,
343,condition1,3,yiwei_contrastive,9,觉得,juede,3431,33,yiwei,
343,condition1,3,yiwei_contrastive,1,觉得,juede,5447,34,yiwei,
343,condition1,3,juede_unclear,118,觉得,juede,3447,35,juede,
343,condition1,3,filler,903,以后,correct,4600,36,filler,
343,condition1,3,juede_unclear,111,觉得,juede,3298,37,juede,
343,condition1,3,juede_contrastive,11,觉得,juede,5399,38,juede,
343,condition1,3,yiwei_unclear,110,以为,yiwei,6214,39,yiwei,
343,condition1,3,juede_contrastive,13,以为,yiwei,6411,40,juede,
343,condition1,4,juede_contrastive,15,觉得,juede,5764,41,juede,
343,condition1,4,yiwei_contrastive,8,觉得,juede,3550,42,yiwei,
343,condition1,4,yiwei_contrastive,10,以为,yiwei,4931,43,yiwei,
343,condition1,4,filler,902,以前,correct,7397,44,filler,
343,condition1,4,juede_contrastive,17,觉得,juede,6313,45,juede,
343,condition1,4,juede_unclear,117,以为,yiwei,5083,46,juede,
343,condition1,4,juede_unclear,113,觉得,juede,3130,47,juede,
343,condition1,4,filler,906,点睛,correct,3330,48,filler,
343,condition1,4,yiwei_unclear,105,以为,yiwei,8845,49,yiwei,
343,condition1,4,yiwei_unclear,106,以为,yiwei,5895,50,yiwei,
330,condition1,practice,practice_1,301,bei,correct,,0,NA,
330,condition1,practice,practice_2,302,lai,ambiguous,,0,NA,
330,condition1,practice,practice_3,303,lai,ambiguous,,0,NA,
330,condition1,practice,practice_4,304,ba,correct,,0,NA,
330,condition1,0,yiwei_contrastive,8,以为,yiwei,3731,1,yiwei,
330,condition1,0,filler,906,点睛,correct,3167,2,filler,
330,condition1,0,yiwei_unclear,102,觉得,juede,3751,3,yiwei,
330,condition1,0,juede_contrastive,16,觉得,juede,3400,4,juede,
330,condition1,0,juede_unclear,117,以为,yiwei,2983,5,juede,
330,condition1,0,yiwei_unclear,105,以为,yiwei,3916,6,yiwei,
330,condition1,0,juede_contrastive,15,觉得,juede,5000,7,juede,
330,condition1,0,filler,910,作气,correct,3017,8,filler,
330,condition1,0,yiwei_contrastive,7,觉得,juede,3433,9,yiwei,
330,condition1,0,juede_unclear,115,以为,yiwei,3200,10,juede,
330,condition1,1,filler,902,以前,correct,3068,11,filler,
330,condition1,1,juede_unclear,111,觉得,juede,4084,12,juede,
330,condition1,1,yiwei_contrastive,5,以为,yiwei,2567,13,yiwei,
330,condition1,1,yiwei_contrastive,2,以为,yiwei,4050,14,yiwei,
330,condition1,1,yiwei_unclear,109,以为,yiwei,2467,15,yiwei,
330,condition1,1,yiwei_unclear,104,觉得,juede,4951,16,yiwei,
330,condition1,1,filler,901,以前,correct,6052,17,filler,
330,condition1,1,juede_contrastive,11,觉得,juede,3382,18,juede,
330,condition1,1,juede_contrastive,18,觉得,juede,3449,19,juede,
330,condition1,1,juede_unclear,114,以为,yiwei,5834,20,juede,
330,condition1,2,juede_unclear,112,觉得,juede,2500,21,juede,
330,condition1,2,juede_contrastive,13,以为,yiwei,3717,22,juede,
330,condition1,2,yiwei_contrastive,6,以为,yiwei,2717,23,yiwei,
330,condition1,2,filler,907,谈兵,correct,2916,24,filler,
330,condition1,2,juede_contrastive,12,觉得,juede,2301,25,juede,
330,condition1,2,yiwei_contrastive,1,以为,yiwei,2934,26,yiwei,
330,condition1,2,filler,904,以后,correct,5150,27,filler,
330,condition1,2,yiwei_unclear,106,以为,yiwei,4267,28,yiwei,
330,condition1,2,juede_unclear,113,觉得,juede,2534,29,juede,
330,condition1,2,yiwei_unclear,107,觉得,juede,4600,30,yiwei,
330,condition1,3,yiwei_unclear,108,觉得,juede,4767,31,yiwei,
330,condition1,3,yiwei_contrastive,10,以为,yiwei,4266,32,yiwei,
330,condition1,3,juede_unclear,120,觉得,juede,5268,33,juede,
330,condition1,3,juede_unclear,118,觉得,juede,4367,34,juede,
330,condition1,3,filler,903,以后,correct,2717,35,filler,
330,condition1,3,juede_contrastive,14,以为,yiwei,1983,36,juede,
330,condition1,3,yiwei_contrastive,3,以为,yiwei,3834,37,yiwei,
330,condition1,3,yiwei_unclear,103,以为,yiwei,9951,38,yiwei,
330,condition1,3,juede_contrastive,17,觉得,juede,8068,39,juede,
330,condition1,3,filler,908,拆桥,correct,3416,40,filler,
330,condition1,4,juede_contrastive,20,以为,yiwei,5418,41,juede,
330,condition1,4,juede_unclear,119,觉得,juede,4433,42,juede,
330,condition1,4,yiwei_unclear,101,以为,yiwei,5083,43,yiwei,
330,condition1,4,juede_contrastive,19,觉得,juede,7968,44,juede,
330,condition1,4,filler,905,桃源,correct,2534,45,filler,
330,condition1,4,filler,909,画龙,incorrect,4450,46,filler,
330,condition1,4,yiwei_contrastive,4,以为,yiwei,3517,47,yiwei,
330,condition1,4,yiwei_contrastive,9,以为,yiwei,3318,48,yiwei,
330,condition1,4,juede_unclear,116,觉得,juede,4200,49,juede,
330,condition1,4,yiwei_unclear,110,以为,yiwei,6567,50,yiwei,
334,condition1,practice,practice_1,301,bei,correct,,0,NA,
334,condition1,practice,practice_2,302,lai,ambiguous,,0,NA,
334,condition1,practice,practice_3,303,lai,ambiguous,,0,NA,
334,condition1,practice,practice_4,304,ba,correct,,0,NA,
334,condition1,0,juede_contrastive,14,觉得,juede,20774,1,juede,
334,condition1,0,juede_unclear,116,觉得,juede,5977,2,juede,
334,condition1,0,juede_unclear,118,觉得,juede,4252,3,juede,
334,condition1,0,juede_contrastive,11,觉得,juede,4328,4,juede,
334,condition1,0,yiwei_unclear,108,觉得,juede,3509,5,yiwei,
334,condition1,0,filler,904,以后,correct,5760,6,filler,
334,condition1,0,yiwei_contrastive,1,觉得,juede,3225,7,yiwei,
334,condition1,0,yiwei_unclear,104,以为,yiwei,7777,8,yiwei,
334,condition1,0,yiwei_contrastive,3,以为,yiwei,5070,9,yiwei,
334,condition1,0,filler,907,谈兵,correct,3195,10,filler,
334,condition1,1,juede_contrastive,19,觉得,juede,5430,11,juede,
334,condition1,1,yiwei_unclear,105,以为,yiwei,4333,12,yiwei,
334,condition1,1,yiwei_contrastive,10,以为,yiwei,3068,13,yiwei,
334,condition1,1,filler,901,以前,correct,2888,14,filler,
334,condition1,1,juede_unclear,112,觉得,juede,4702,15,juede,
334,condition1,1,juede_unclear,117,以为,yiwei,3301,16,juede,
334,condition1,1,juede_contrastive,15,以为,yiwei,11752,17,juede,
334,condition1,1,yiwei_unclear,107,以为,yiwei,3795,18,yiwei,
334,condition1,1,filler,908,拆桥,correct,2722,19,filler,
334,condition1,1,yiwei_contrastive,5,以为,yiwei,1876,20,yiwei,
334,condition1,2,juede_unclear,114,觉得,juede,4417,21,juede,
334,condition1,2,filler,910,作气,correct,2302,22,filler,
334,condition1,2,yiwei_unclear,103,以为,yiwei,3406,23,yiwei,
334,condition1,2,juede_unclear,120,觉得,juede,3225,24,juede,
334,condition1,2,filler,909,画蛇,correct,2197,25,filler,
334,condition1,2,yiwei_unclear,106,以为,yiwei,1770,26,yiwei,
334,condition1,2,yiwei_contrastive,8,以为,yiwei,3291,27,yiwei,
334,condition1,2,juede_contrastive,16,觉得,juede,4945,28,juede,
334,condition1,2,juede_contrastive,18,觉得,juede,3237,29,juede,
334,condition1,2,yiwei_contrastive,4,以为,yiwei,2588,30,yiwei,
334,condition1,3,juede_contrastive,12,觉得,juede,2324,31,juede,
334,condition1,3,filler,903,以后,correct,9278,32,filler,
334,condition1,3,filler,902,以前,correct,24031,33,filler,
334,condition1,3,juede_unclear,111,觉得,juede,2985,34,juede,
334,condition1,3,yiwei_contrastive,7,觉得,juede,3097,35,yiwei,
334,condition1,3,yiwei_unclear,101,以为,yiwei,1733,36,yiwei,
334,condition1,3,yiwei_unclear,110,觉得,juede,3795,37,yiwei,
334,condition1,3,juede_unclear,115,以为,yiwei,2985,38,juede,
334,condition1,3,juede_contrastive,13,以为,yiwei,3577,39,juede,
334,condition1,3,yiwei_contrastive,2,觉得,juede,1718,40,yiwei,
334,condition1,4,juede_unclear,119,觉得,juede,2385,41,juede,
334,condition1,4,yiwei_contrastive,9,觉得,juede,3562,42,yiwei,
334,condition1,4,filler,905,桃源,correct,1606,43,filler,
334,condition1,4,juede_contrastive,17,以为,yiwei,5047,44,juede,
334,condition1,4,yiwei_unclear,102,以为,yiwei,1770,45,yiwei,
334,condition1,4,juede_unclear,113,觉得,juede,1612,46,juede,
334,condition1,4,yiwei_unclear,109,以为,yiwei,3668,47,yiwei,
334,condition1,4,juede_contrastive,20,以为,yiwei,4417,48,juede,
334,condition1,4,yiwei_contrastive,6,觉得,juede,2985,49,yiwei,
334,condition1,4,filler,906,点睛,correct,7380,50,filler,
302,condition1,practice,practice_1,301,bei,correct,,0,NA,
302,condition1,practice,practice_2,302,lai,ambiguous,,0,NA,
302,condition1,practice,practice_3,303,lai,ambiguous,,0,NA,
302,condition1,practice,practice_4,304,ba,correct,,0,NA,
302,condition1,0,juede_unclear,120,觉得,juede,6279,1,juede,
302,condition1,0,yiwei_contrastive,3,以为,yiwei,6250,2,yiwei,
302,condition1,0,juede_contrastive,11,觉得,juede,4101,3,juede,
302,condition1,0,yiwei_unclear,104,以为,yiwei,6667,4,yiwei,
302,condition1,0,filler,909,画蛇,correct,3747,5,filler,
302,condition1,0,filler,905,桃源,correct,2909,6,filler,
302,condition1,0,yiwei_unclear,101,以为,yiwei,4744,7,yiwei,
302,condition1,0,juede_unclear,117,以为,yiwei,4905,8,juede,
302,condition1,0,yiwei_contrastive,9,觉得,juede,3810,9,yiwei,
302,condition1,0,juede_contrastive,17,以为,yiwei,3290,10,juede,
302,condition1,1,yiwei_contrastive,10,以为,yiwei,5989,11,yiwei,
302,condition1,1,yiwei_unclear,108,觉得,juede,29352,12,yiwei,
302,condition1,1,juede_unclear,114,觉得,juede,10817,13,juede,
302,condition1,1,juede_unclear,118,觉得,juede,4582,14,juede,
302,condition1,1,juede_contrastive,18,觉得,juede,7639,15,juede,
302,condition1,1,yiwei_unclear,103,以为,yiwei,5347,16,yiwei,
302,condition1,1,filler,904,以后,correct,34986,17,filler,
302,condition1,1,filler,903,以后,correct,3955,18,filler,
302,condition1,1,juede_contrastive,14,以为,yiwei,3793,19,juede,
302,condition1,1,yiwei_contrastive,8,觉得,juede,6743,20,yiwei,
302,condition1,2,yiwei_unclear,110,以为,yiwei,33663,21,yiwei,
302,condition1,2,filler,908,拆桥,correct,2892,22,filler,
302,condition1,2,filler,906,点睛,correct,3103,23,filler,
302,condition1,2,juede_contrastive,19,觉得,juede,39727,24,juede,
302,condition1,2,yiwei_contrastive,2,以为,yiwei,13434,25,yiwei,
302,condition1,2,juede_contrastive,13,以为,yiwei,7432,26,juede,
302,condition1,2,juede_unclear,111,觉得,juede,4311,27,juede,
302,condition1,2,juede_unclear,112,觉得,juede,7587,28,juede,
302,condition1,2,yiwei_unclear,106,觉得,juede,13069,29,yiwei,
302,condition1,2,yiwei_contrastive,7,觉得,juede,3001,30,yiwei,
302,condition1,3,filler,901,以前,correct,5619,31,filler,
302,condition1,3,yiwei_unclear,105,以为,yiwei,5111,32,yiwei,
302,condition1,3,yiwei_contrastive,6,以为,yiwei,2335,33,yiwei,
302,condition1,3,juede_unclear,119,觉得,juede,5136,34,juede,
302,condition1,3,juede_unclear,116,觉得,juede,44270,35,juede,
302,condition1,3,filler,902,以前,correct,6798,36,filler,
302,condition1,3,yiwei_contrastive,1,以为,yiwei,27333,37,yiwei,
302,condition1,3,juede_contrastive,16,觉得,juede,15527,38,juede,
302,condition1,3,yiwei_unclear,109,以为,yiwei,2531,39,yiwei,
302,condition1,3,juede_contrastive,12,觉得,juede,4065,40,juede,
302,condition1,4,yiwei_unclear,107,以为,yiwei,14710,41,yiwei,
302,condition1,4,juede_unclear,115,觉得,juede,13632,42,juede,
302,condition1,4,filler,907,谈兵,correct,29807,43,filler,
302,condition1,4,yiwei_unclear,102,以为,yiwei,4971,44,yiwei,
302,condition1,4,yiwei_contrastive,4,觉得,juede,5363,45,yiwei,
302,condition1,4,yiwei_contrastive,5,以为,yiwei,6055,46,yiwei,
302,condition1,4,juede_unclear,113,觉得,juede,4455,47,juede,
302,condition1,4,filler,910,作气,correct,3379,48,filler,
302,condition1,4,juede_contrastive,20,觉得,juede,5151,49,juede,
302,condition1,4,juede_contrastive,15,觉得,juede,6988,50,juede,
335,condition1,practice,practice_1,301,bei,correct,,0,NA,
335,condition1,practice,practice_2,302,lai,ambiguous,,0,NA,
335,condition1,practice,practice_3,303,lai,ambiguous,,0,NA,
335,condition1,practice,practice_4,304,ba,correct,,0,NA,
335,condition1,0,yiwei_contrastive,2,以为,yiwei,6783,1,yiwei,
335,condition1,0,filler,902,以前,correct,3316,2,filler,
335,condition1,0,yiwei_contrastive,5,以为,yiwei,4751,3,yiwei,
335,condition1,0,filler,905,桃源,correct,2933,4,filler,
335,condition1,0,yiwei_unclear,108,觉得,juede,9850,5,yiwei,
335,condition1,0,juede_contrastive,16,觉得,juede,4800,6,juede,
335,condition1,0,juede_contrastive,12,觉得,juede,3266,7,juede,
335,condition1,0,yiwei_unclear,102,以为,yiwei,4051,8,yiwei,
335,condition1,0,juede_unclear,114,觉得,juede,13614,9,juede,
335,condition1,0,juede_unclear,119,觉得,juede,4486,10,juede,
335,condition1,1,juede_contrastive,19,以为,yiwei,9916,11,juede,
335,condition1,1,yiwei_contrastive,10,以为,yiwei,3184,12,yiwei,
335,condition1,1,filler,901,以前,correct,4467,13,filler,
335,condition1,1,yiwei_contrastive,3,以为,yiwei,6699,14,yiwei,
335,condition1,1,yiwei_unclear,104,以为,yiwei,7565,15,yiwei,
335,condition1,1,yiwei_unclear,109,以为,yiwei,3101,16,yiwei,
335,condition1,1,juede_unclear,116,觉得,juede,2933,17,juede,
335,condition1,1,filler,908,拆桥,correct,3567,18,filler,
335,condition1,1,juede_unclear,118,觉得,juede,3817,19,juede,
335,condition1,1,juede_contrastive,11,觉得,juede,5599,20,juede,
335,condition1,2,juede_contrastive,20,觉得,juede,4967,21,juede,
335,condition1,2,filler,906,点睛,correct,5466,22,filler,
335,condition1,2,yiwei_unclear,110,以为,yiwei,6200,23,yiwei,
335,condition1,2,yiwei_unclear,103,以为,yiwei,2833,24,yiwei,
335,condition1,2,juede_unclear,111,觉得,juede,3067,25,juede,
335,condition1,2,filler,904,以后,correct,5417,26,filler,
335,condition1,2,yiwei_contrastive,6,觉得,juede,7433,27,yiwei,
335,condition1,2,juede_contrastive,18,以为,yiwei,7334,28,juede,
335,condition1,2,juede_unclear,112,觉得,juede,3399,29,juede,
335,condition1,2,yiwei_contrastive,9,以为,yiwei,4017,30,yiwei,
335,condition1,3,juede_unclear,120,觉得,juede,4067,31,juede,
335,condition1,3,yiwei_contrastive,8,觉得,juede,8233,32,yiwei,
335,condition1,3,filler,907,谈兵,correct,3048,33,filler,
335,condition1,3,yiwei_unclear,105,以为,yiwei,6317,34,yiwei,
335,condition1,3,juede_unclear,113,觉得,juede,2417,35,juede,
335,condition1,3,juede_contrastive,17,以为,yiwei,3499,36,juede,
335,condition1,3,juede_contrastive,15,以为,yiwei,10600,37,juede,
335,condition1,3,yiwei_unclear,107,以为,yiwei,4117,38,yiwei,
335,condition1,3,yiwei_contrastive,4,以为,yiwei,4615,39,yiwei,
335,condition1,3,filler,910,作气,correct,2784,40,filler,
335,condition1,4,yiwei_unclear,101,以为,yiwei,3151,41,yiwei,
335,condition1,4,yiwei_unclear,106,觉得,juede,5767,42,yiwei,
335,condition1,4,yiwei_contrastive,7,以为,yiwei,4365,43,yiwei,
335,condition1,4,filler,903,以后,correct,2801,44,filler,
335,condition1,4,juede_contrastive,13,以为,yiwei,8717,45,juede,
335,condition1,4,juede_unclear,117,以为,yiwei,3616,46,juede,
335,condition1,4,yiwei_contrastive,1,以为,yiwei,6233,47,yiwei,
335,condition1,4,filler,909,画蛇,correct,4717,48,filler,
335,condition1,4,juede_contrastive,14,觉得,juede,5016,49,juede,
335,condition1,4,juede_unclear,115,觉得,juede,4650,50,juede,
376,condition1,practice,practice_1,301,bei,correct,,0,NA,
376,condition1,practice,practice_2,302,lai,ambiguous,,0,NA,
376,condition1,practice,practice_3,303,qu,ambiguous,,0,NA,
376,condition1,practice,practice_4,304,ba,correct,,0,NA,
376,condition1,0,yiwei_unclear,109,以为,yiwei,5483,1,yiwei,
376,condition1,0,filler,907,谈兵,correct,17281,2,filler,
376,condition1,0,juede_contrastive,20,觉得,juede,19535,3,juede,
376,condition1,0,juede_unclear,116,觉得,juede,12033,4,juede,
376,condition1,0,yiwei_contrastive,3,以为,yiwei,9934,5,yiwei,
376,condition1,0,yiwei_contrastive,4,以为,yiwei,6265,6,yiwei,
376,condition1,0,juede_contrastive,13,以为,yiwei,5283,7,juede,
376,condition1,0,yiwei_unclear,110,以为,yiwei,12401,8,yiwei,
376,condition1,0,juede_unclear,117,觉得,juede,9149,9,juede,
376,condition1,0,filler,902,以前,correct,5932,10,filler,
376,condition1,1,filler,904,以后,correct,6433,11,filler,
376,condition1,1,juede_unclear,114,觉得,juede,18167,12,juede,
376,condition1,1,yiwei_unclear,107,以为,yiwei,7533,13,yiwei,
376,condition1,1,juede_unclear,119,觉得,juede,5149,14,juede,
376,condition1,1,yiwei_contrastive,9,觉得,juede,3984,15,yiwei,
376,condition1,1,filler,909,画蛇,correct,3900,16,filler,
376,condition1,1,juede_contrastive,19,觉得,juede,5200,17,juede,
376,condition1,1,juede_contrastive,18,觉得,juede,5599,18,juede,
376,condition1,1,yiwei_contrastive,10,以为,yiwei,9549,19,yiwei,
376,condition1,1,yiwei_unclear,101,以为,yiwei,6401,20,yiwei,
376,condition1,2,juede_unclear,115,觉得,juede,3849,21,juede,
376,condition1,2,juede_contrastive,12,觉得,juede,3682,22,juede,
376,condition1,2,juede_contrastive,15,以为,yiwei,21667,23,juede,
376,condition1,2,yiwei_contrastive,6,以为,yiwei,4784,24,yiwei,
376,condition1,2,filler,908,拆桥,correct,17549,25,filler,
376,condition1,2,filler,901,以前,correct,6734,26,filler,
376,condition1,2,yiwei_unclear,103,以为,yiwei,4534,27,yiwei,
376,condition1,2,yiwei_unclear,105,以为,yiwei,5783,28,yiwei,
376,condition1,2,juede_unclear,118,觉得,juede,3936,29,juede,
376,condition1,2,yiwei_contrastive,8,以为,yiwei,5348,30,yiwei,
376,condition1,3,juede_unclear,111,觉得,juede,3015,31,juede,
376,condition1,3,yiwei_unclear,104,觉得,juede,8734,32,yiwei,
376,condition1,3,filler,910,作气,correct,4401,33,filler,
376,condition1,3,juede_contrastive,16,觉得,juede,4901,34,juede,
376,condition1,3,juede_unclear,112,觉得,juede,4983,35,juede,
376,condition1,3,yiwei_unclear,102,以为,yiwei,8950,36,yiwei,
376,condition1,3,filler,905,桃源,correct,3351,37,filler,
376,condition1,3,yiwei_contrastive,5,以为,yiwei,3733,38,yiwei,
376,condition1,3,yiwei_contrastive,7,觉得,juede,5000,39,yiwei,
376,condition1,3,juede_contrastive,11,觉得,juede,3883,40,juede,
376,condition1,4,filler,903,以后,correct,4383,41,filler,
376,condition1,4,juede_unclear,120,觉得,juede,5767,42,juede,
376,condition1,4,yiwei_unclear,108,觉得,juede,4998,43,yiwei,
376,condition1,4,juede_contrastive,17,觉得,juede,4035,44,juede,
376,condition1,4,yiwei_unclear,106,觉得,juede,6683,45,yiwei,
376,condition1,4,yiwei_contrastive,2,以为,yiwei,3250,46,yiwei,
376,condition1,4,filler,906,点睛,correct,9466,47,filler,
376,condition1,4,juede_unclear,113,觉得,juede,3417,48,juede,
376,condition1,4,yiwei_contrastive,1,觉得,juede,5749,49,yiwei,
376,condition1,4,juede_contrastive,14,觉得,juede,4751,50,juede,
310,condition1,practice,practice_1,301,bei,correct,,0,NA,
310,condition1,practice,practice_2,302,lai,ambiguous,,0,NA,
310,condition1,practice,practice_3,303,lai,ambiguous,,0,NA,
310,condition1,practice,practice_4,304,ba,correct,,0,NA,
310,condition1,0,juede_unclear,112,觉得,juede,4907,1,juede,
310,condition1,0,yiwei_unclear,109,以为,yiwei,2736,2,yiwei,
310,condition1,0,juede_unclear,114,觉得,juede,10353,3,juede,
310,condition1,0,juede_contrastive,16,觉得,juede,3791,4,juede,
310,condition1,0,yiwei_contrastive,9,以为,yiwei,2649,5,yiwei,
310,condition1,0,yiwei_unclear,102,觉得,juede,4550,6,yiwei,
310,condition1,0,yiwei_contrastive,7,以为,yiwei,4111,7,yiwei,
310,condition1,0,filler,904,以后,correct,5888,8,filler,
310,condition1,0,juede_contrastive,17,以为,yiwei,6379,9,juede,
310,condition1,0,filler,909,画蛇,correct,3297,10,filler,
310,condition1,1,yiwei_contrastive,3,以为,yiwei,4367,11,yiwei,
310,condition1,1,yiwei_contrastive,2,以为,yiwei,2722,12,yiwei,
310,condition1,1,filler,907,谈兵,correct,2568,13,filler,
310,condition1,1,juede_unclear,120,觉得,juede,3426,14,juede,
310,condition1,1,juede_contrastive,13,以为,yiwei,3322,15,juede,
310,condition1,1,yiwei_unclear,106,觉得,juede,4117,16,yiwei,
310,condition1,1,yiwei_unclear,103,以为,yiwei,4182,17,yiwei,
310,condition1,1,juede_unclear,119,觉得,juede,3216,18,juede,
310,condition1,1,filler,908,拆桥,correct,2005,19,filler,
310,condition1,1,juede_contrastive,15,觉得,juede,6319,20,juede,
310,condition1,2,yiwei_unclear,105,觉得,juede,2397,21,yiwei,
310,condition1,2,yiwei_contrastive,1,以为,yiwei,9721,22,yiwei,
310,condition1,2,filler,903,以后,correct,2226,23,filler,
310,condition1,2,juede_contrastive,18,觉得,juede,6833,24,juede,
310,condition1,2,yiwei_contrastive,10,以为,yiwei,2719,25,yiwei,
310,condition1,2,juede_contrastive,11,觉得,juede,3193,26,juede,
310,condition1,2,filler,905,桃源,correct,1979,27,filler,
310,condition1,2,juede_unclear,116,觉得,juede,3761,28,juede,
310,condition1,2,yiwei_unclear,110,以为,yiwei,6017,29,yiwei,
310,condition1,2,juede_unclear,117,以为,yiwei,2739,30,juede,
310,condition1,3,yiwei_unclear,107,觉得,juede,4315,31,yiwei,
310,condition1,3,juede_unclear,113,觉得,juede,2954,32,juede,
310,condition1,3,juede_contrastive,20,觉得,juede,6154,33,juede,
310,condition1,3,yiwei_unclear,104,以为,yiwei,3321,34,yiwei,
310,condition1,3,filler,901,以前,correct,4104,35,filler,
310,condition1,3,yiwei_contrastive,4,以为,yiwei,3733,36,yiwei,
310,condition1,3,yiwei_contrastive,6,以为,yiwei,3306,37,yiwei,
310,condition1,3,juede_unclear,115,觉得,juede,2307,38,juede,
310,condition1,3,filler,906,点睛,correct,2154,39,filler,
310,condition1,3,juede_contrastive,19,觉得,juede,3392,40,juede,
310,condition1,4,yiwei_contrastive,8,以为,yiwei,3375,41,yiwei,
310,condition1,4,yiwei_unclear,108,觉得,juede,2667,42,yiwei,
310,condition1,4,filler,910,作气,correct,3857,43,filler,
310,condition1,4,juede_unclear,111,觉得,juede,3987,44,juede,
310,condition1,4,yiwei_unclear,101,以为,yiwei,2421,45,yiwei,
310,condition1,4,filler,902,以前,correct,2434,46,filler,
310,condition1,4,yiwei_contrastive,5,以为,yiwei,2282,47,yiwei,
310,condition1,4,juede_unclear,118,觉得,juede,3130,48,juede,
310,condition1,4,juede_contrastive,12,觉得,juede,2304,49,juede,
310,condition1,4,juede_contrastive,14,觉得,juede,3460,50,juede,
379,condition1,practice,practice_1,301,bei,correct,,0,NA,
379,condition1,practice,practice_2,302,qu,ambiguous,,0,NA,
379,condition1,practice,practice_3,303,lai,ambiguous,,0,NA,
379,condition1,practice,practice_4,304,ba,correct,,0,NA,
379,condition1,0,juede_unclear,115,觉得,juede,11409,1,juede,
379,condition1,0,juede_unclear,111,觉得,juede,9762,2,juede,
379,condition1,0,juede_contrastive,13,以为,yiwei,8432,3,juede,
379,condition1,0,yiwei_unclear,109,以为,yiwei,4965,4,yiwei,
379,condition1,0,juede_contrastive,19,觉得,juede,30538,5,juede,
379,condition1,0,yiwei_contrastive,3,以为,yiwei,5428,6,yiwei,
379,condition1,0,filler,902,以前,correct,7386,7,filler,
379,condition1,0,yiwei_unclear,106,以为,yiwei,23414,8,yiwei,
379,condition1,0,yiwei_contrastive,8,以为,yiwei,5838,9,yiwei,
379,condition1,0,filler,910,作气,correct,6777,10,filler,
379,condition1,1,filler,908,拆桥,correct,5700,11,filler,
379,condition1,1,yiwei_unclear,110,以为,yiwei,10524,12,yiwei,
379,condition1,1,juede_contrastive,18,以为,yiwei,13670,13,juede,
379,condition1,1,yiwei_unclear,105,以为,yiwei,21026,14,yiwei,
379,condition1,1,juede_unclear,116,以为,yiwei,23303,15,juede,
379,condition1,1,juede_contrastive,15,以为,yiwei,18608,16,juede,
379,condition1,1,yiwei_contrastive,2,以为,yiwei,10526,17,yiwei,
379,condition1,1,yiwei_contrastive,9,以为,yiwei,7978,18,yiwei,
379,condition1,1,juede_unclear,119,觉得,juede,8018,19,juede,
379,condition1,1,filler,904,以后,correct,11510,20,filler,
379,condition1,2,juede_unclear,114,觉得,juede,9486,21,juede,
379,condition1,2,yiwei_unclear,101,以为,yiwei,5612,22,yiwei,
379,condition1,2,yiwei_contrastive,6,以为,yiwei,6973,23,yiwei,
379,condition1,2,yiwei_unclear,107,以为,yiwei,7897,24,yiwei,
379,condition1,2,filler,906,点睛,correct,20402,25,filler,
379,condition1,2,juede_unclear,118,觉得,juede,7722,26,juede,
379,condition1,2,yiwei_contrastive,4,以为,yiwei,7383,27,yiwei,
379,condition1,2,filler,909,画蛇,correct,6633,28,filler,
379,condition1,2,juede_contrastive,14,觉得,juede,12806,29,juede,
379,condition1,2,juede_contrastive,20,以为,yiwei,6644,30,juede,
379,condition1,3,juede_contrastive,17,以为,yiwei,5673,31,juede,
379,condition1,3,yiwei_unclear,108,觉得,juede,6953,32,yiwei,
379,condition1,3,yiwei_unclear,103,以为,yiwei,7003,33,yiwei,
379,condition1,3,filler,907,谈兵,correct,3247,34,filler,
379,condition1,3,juede_unclear,120,觉得,juede,26482,35,juede,
379,condition1,3,yiwei_contrastive,7,觉得,juede,5013,36,yiwei,
379,condition1,3,juede_contrastive,11,觉得,juede,4010,37,juede,
379,condition1,3,juede_unclear,113,觉得,juede,5088,38,juede,
379,condition1,3,filler,905,桃源,correct,3346,39,filler,
379,condition1,3,yiwei_contrastive,5,以为,yiwei,2969,40,yiwei,
379,condition1,4,juede_contrastive,12,觉得,juede,4024,41,juede,
379,condition1,4,yiwei_contrastive,10,以为,yiwei,5667,42,yiwei,
379,condition1,4,yiwei_unclear,102,以为,yiwei,6519,43,yiwei,
379,condition1,4,filler,903,以后,correct,6374,44,filler,
379,condition1,4,yiwei_unclear,104,以为,yiwei,8512,45,yiwei,
379,condition1,4,filler,901,以前,correct,6792,46,filler,
379,condition1,4,juede_contrastive,16,觉得,juede,4620,47,juede,
379,condition1,4,juede_unclear,112,觉得,juede,9477,48,juede,
379,condition1,4,yiwei_contrastive,1,以为,yiwei,4184,49,yiwei,
379,condition1,4,juede_unclear,117,以为,yiwei,3841,50,juede,
325,condition1,practice,practice_1,301,bei,correct,,0,NA,
325,condition1,practice,practice_2,302,lai,ambiguous,,0,NA,
325,condition1,practice,practice_3,303,qu,ambiguous,,0,NA,
325,condition1,practice,practice_4,304,ba,correct,,0,NA,
325,condition1,0,filler,903,以后,correct,4320,1,filler,
325,condition1,0,yiwei_unclear,110,以为,yiwei,6450,2,yiwei,
325,condition1,0,juede_contrastive,16,觉得,juede,12600,3,juede,
325,condition1,0,juede_unclear,114,觉得,juede,4815,4,juede,
325,condition1,0,juede_contrastive,18,觉得,juede,3180,5,juede,
325,condition1,0,yiwei_contrastive,6,觉得,juede,2565,6,yiwei,
325,condition1,0,juede_unclear,120,觉得,juede,4282,7,juede,
325,condition1,0,yiwei_contrastive,9,觉得,juede,4222,8,yiwei,
325,condition1,0,filler,909,画蛇,correct,5918,9,filler,
325,condition1,0,yiwei_unclear,106,觉得,juede,6885,10,yiwei,
325,condition1,1,filler,905,桃源,correct,2730,11,filler,
325,condition1,1,yiwei_contrastive,8,觉得,juede,3825,12,yiwei,
325,condition1,1,juede_contrastive,13,以为,yiwei,9015,13,juede,
325,condition1,1,juede_contrastive,20,觉得,juede,4687,14,juede,
325,condition1,1,filler,906,点睛,correct,3044,15,filler,
325,condition1,1,juede_unclear,119,觉得,juede,4913,16,juede,
325,condition1,1,yiwei_unclear,107,觉得,juede,3983,17,yiwei,
325,condition1,1,juede_unclear,111,觉得,juede,8047,18,juede,
325,condition1,1,yiwei_unclear,101,以为,yiwei,6270,19,yiwei,
325,condition1,1,yiwei_contrastive,1,觉得,juede,2212,20,yiwei,
325,condition1,2,yiwei_contrastive,2,觉得,juede,3007,21,yiwei,
325,condition1,2,filler,902,以前,correct,4875,22,filler,
325,condition1,2,filler,904,以后,correct,4612,23,filler,
325,condition1,2,juede_contrastive,11,觉得,juede,3180,24,juede,
325,condition1,2,juede_contrastive,15,觉得,juede,7988,25,juede,
325,condition1,2,yiwei_contrastive,5,以为,yiwei,2662,26,yiwei,
325,condition1,2,juede_unclear,113,觉得,juede,2498,27,juede,
325,condition1,2,yiwei_unclear,102,以为,yiwei,4912,28,yiwei,
325,condition1,2,yiwei_unclear,105,以为,yiwei,6818,29,yiwei,
325,condition1,2,juede_unclear,117,以为,yiwei,3405,30,juede,
325,condition1,3,yiwei_contrastive,10,觉得,juede,2302,31,yiwei,
325,condition1,3,juede_unclear,112,以为,yiwei,3946,32,juede,
325,condition1,3,filler,907,谈兵,correct,2429,33,filler,
325,condition1,3,juede_contrastive,19,觉得,juede,3044,34,juede,
325,condition1,3,yiwei_unclear,104,觉得,juede,3270,35,yiwei,
325,condition1,3,juede_unclear,115,觉得,juede,1913,36,juede,
325,condition1,3,yiwei_contrastive,7,觉得,juede,5145,37,yiwei,
325,condition1,3,juede_contrastive,12,觉得,juede,4073,38,juede,
325,condition1,3,filler,901,以前,correct,6765,39,filler,
325,condition1,3,yiwei_unclear,103,觉得,juede,4042,40,yiwei,
325,condition1,4,yiwei_unclear,108,以为,yiwei,6225,41,yiwei,
325,condition1,4,juede_contrastive,14,以为,yiwei,6030,42,juede,
325,condition1,4,yiwei_contrastive,4,觉得,juede,1875,43,yiwei,
325,condition1,4,juede_contrastive,17,觉得,juede,4380,44,juede,
325,condition1,4,juede_unclear,118,觉得,juede,3607,45,juede,
325,condition1,4,juede_unclear,116,觉得,juede,4778,46,juede,
325,condition1,4,filler,910,作气,correct,3525,47,filler,
325,condition1,4,yiwei_contrastive,3,以为,yiwei,6600,48,yiwei,
325,condition1,4,yiwei_unclear,109,觉得,juede,2370,49,yiwei,
325,condition1,4,filler,908,拆桥,correct,6323,50,filler,
382,condition1,practice,practice_1,301,bei,correct,,0,NA,
382,condition1,practice,practice_2,302,qu,ambiguous,,0,NA,
382,condition1,practice,practice_3,303,lai,ambiguous,,0,NA,
382,condition1,practice,practice_4,304,ba,correct,,0,NA,
382,condition1,0,juede_unclear,114,觉得,juede,9837,1,juede,
382,condition1,0,yiwei_unclear,101,以为,yiwei,12296,2,yiwei,
382,condition1,0,juede_contrastive,16,觉得,juede,7441,3,juede,
382,condition1,0,yiwei_contrastive,4,以为,yiwei,7168,4,yiwei,
382,condition1,0,filler,906,点睛,correct,26694,5,filler,
382,condition1,0,juede_unclear,112,觉得,juede,8803,6,juede,
382,condition1,0,yiwei_unclear,103,以为,yiwei,16006,7,yiwei,
382,condition1,0,juede_contrastive,13,以为,yiwei,9400,8,juede,
382,condition1,0,yiwei_contrastive,10,觉得,juede,5809,9,yiwei,
382,condition1,0,filler,903,以后,correct,4810,10,filler,
382,condition1,1,yiwei_contrastive,8,以为,yiwei,8186,11,yiwei,
382,condition1,1,juede_unclear,116,觉得,juede,10616,12,juede,
382,condition1,1,juede_contrastive,18,以为,yiwei,6641,13,juede,
382,condition1,1,juede_unclear,118,觉得,juede,9551,14,juede,
382,condition1,1,yiwei_unclear,106,以为,yiwei,7739,15,yiwei,
382,condition1,1,yiwei_unclear,105,觉得,juede,6640,16,yiwei,
382,condition1,1,yiwei_contrastive,6,以为,yiwei,8155,17,yiwei,
382,condition1,1,filler,902,以前,correct,9969,18,filler,
382,condition1,1,filler,910,作气,correct,12213,19,filler,
382,condition1,1,juede_contrastive,20,觉得,juede,11686,20,juede,
382,condition1,2,yiwei_unclear,102,以为,yiwei,5574,21,yiwei,
382,condition1,2,juede_unclear,119,觉得,juede,10283,22,juede,
382,condition1,2,filler,904,以后,correct,16293,23,filler,
382,condition1,2,yiwei_contrastive,5,以为,yiwei,7305,24,yiwei,
382,condition1,2,juede_unclear,111,觉得,juede,5424,25,juede,
382,condition1,2,juede_contrastive,19,觉得,juede,5043,26,juede,
382,condition1,2,juede_contrastive,14,觉得,juede,5388,27,juede,
382,condition1,2,yiwei_contrastive,9,觉得,juede,6275,28,yiwei,
382,condition1,2,yiwei_unclear,108,觉得,juede,13929,29,yiwei,
382,condition1,2,filler,905,桃源,correct,11465,30,filler,
382,condition1,3,yiwei_contrastive,1,觉得,juede,6407,31,yiwei,
382,condition1,3,filler,907,谈兵,correct,9200,32,filler,
382,condition1,3,filler,901,以前,correct,6490,33,filler,
382,condition1,3,yiwei_unclear,107,以为,yiwei,14511,34,yiwei,
382,condition1,3,yiwei_contrastive,7,觉得,juede,5124,35,yiwei,
382,condition1,3,juede_unclear,113,以为,yiwei,9484,36,juede,
382,condition1,3,juede_unclear,120,觉得,juede,4277,37,juede,
382,condition1,3,yiwei_unclear,110,以为,yiwei,10882,38,yiwei,
382,condition1,3,juede_contrastive,17,以为,yiwei,11284,39,juede,
382,condition1,3,juede_contrastive,11,觉得,juede,7508,40,juede,
382,condition1,4,yiwei_unclear,109,以为,yiwei,5440,41,yiwei,
382,condition1,4,filler,909,画龙,incorrect,10269,42,filler,
382,condition1,4,yiwei_contrastive,2,以为,yiwei,4875,43,yiwei,
382,condition1,4,juede_unclear,117,以为,yiwei,5442,44,juede,
382,condition1,4,yiwei_contrastive,3,以为,yiwei,8569,45,yiwei,
382,condition1,4,juede_contrastive,15,觉得,juede,6508,46,juede,
382,condition1,4,filler,908,拆桥,correct,6259,47,filler,
382,condition1,4,juede_contrastive,12,觉得,juede,4242,48,juede,
382,condition1,4,yiwei_unclear,104,以为,yiwei,7453,49,yiwei,
382,condition1,4,juede_unclear,115,觉得,juede,5942,50,juede,
371,condition1,practice,practice_1,301,bei,correct,,0,NA,
371,condition1,practice,practice_2,302,lai,ambiguous,,0,NA,
371,condition1,practice,practice_3,303,lai,ambiguous,,0,NA,
371,condition1,practice,practice_4,304,ba,correct,,0,NA,
371,condition1,0,yiwei_unclear,101,觉得,juede,5550,1,yiwei,
371,condition1,0,juede_contrastive,17,以为,yiwei,5199,2,juede,
371,condition1,0,juede_unclear,111,觉得,juede,4050,3,juede,
371,condition1,0,filler,902,以前,correct,3833,4,filler,
371,condition1,0,yiwei_unclear,109,以为,yiwei,3166,5,yiwei,
371,condition1,0,filler,908,拆桥,correct,5533,6,filler,
371,condition1,0,juede_unclear,115,觉得,juede,4583,7,juede,
371,condition1,0,yiwei_contrastive,5,以为,yiwei,2899,8,yiwei,
371,condition1,0,juede_contrastive,16,觉得,juede,3583,9,juede,
371,condition1,0,yiwei_contrastive,1,以为,yiwei,7233,10,yiwei,
371,condition1,1,yiwei_unclear,107,以为,yiwei,6283,11,yiwei,
371,condition1,1,juede_contrastive,20,觉得,juede,6733,12,juede,
371,condition1,1,yiwei_contrastive,6,觉得,juede,3067,13,yiwei,
371,condition1,1,juede_unclear,113,觉得,juede,4000,14,juede,
371,condition1,1,juede_unclear,117,觉得,juede,5517,15,juede,
371,condition1,1,yiwei_contrastive,8,觉得,juede,5533,16,yiwei,
371,condition1,1,juede_contrastive,12,觉得,juede,2333,17,juede,
371,condition1,1,yiwei_unclear,102,以为,yiwei,2833,18,yiwei,
371,condition1,1,filler,910,作气,correct,2916,19,filler,
371,condition1,1,filler,903,以后,correct,2750,20,filler,
371,condition1,2,juede_unclear,112,觉得,juede,4516,21,juede,
371,condition1,2,juede_contrastive,14,觉得,juede,5250,22,juede,
371,condition1,2,yiwei_contrastive,9,以为,yiwei,1883,23,yiwei,
371,condition1,2,juede_unclear,114,觉得,juede,5633,24,juede,
371,condition1,2,yiwei_unclear,110,以为,yiwei,3868,25,yiwei,
371,condition1,2,yiwei_unclear,106,以为,yiwei,29382,26,yiwei,
371,condition1,2,filler,907,谈兵,correct,4717,27,filler,
371,condition1,2,filler,904,以后,correct,6266,28,filler,
371,condition1,2,yiwei_contrastive,4,以为,yiwei,3250,29,yiwei,
371,condition1,2,juede_contrastive,19,觉得,juede,5567,30,juede,
371,condition1,3,yiwei_contrastive,10,觉得,juede,3666,31,yiwei,
371,condition1,3,juede_contrastive,15,以为,yiwei,8783,32,juede,
371,condition1,3,filler,909,画蛇,correct,4934,33,filler,
371,condition1,3,juede_unclear,119,觉得,juede,4250,34,juede,
371,condition1,3,filler,906,点睛,correct,4284,35,filler,
371,condition1,3,juede_contrastive,11,觉得,juede,3582,36,juede,
371,condition1,3,yiwei_unclear,105,觉得,juede,4782,37,yiwei,
