workerid,proliferate.condition,block_id,condition,item_id,original_choice,response,rt,trial_num,verb,error
308,condition1,practice,practice_1,301,lai,correct,,0,NA,
308,condition1,practice,practice_2,302,pohuai,ambiguous,,0,NA,
308,condition1,practice,practice_3,303,ba,ambiguous,,0,NA,
308,condition1,practice,practice_4,304,qu,correct,,0,NA,
308,condition1,0,juede_unclear,112,觉得,juede,14726,1,juede,
308,condition1,0,yiwei_contrastive,3,以为,yiwei,13600,2,yiwei,
308,condition1,0,juede_contrastive,18,以为,yiwei,9735,3,juede,
308,condition1,0,filler,908,拆桥,correct,5048,4,filler,
308,condition1,0,yiwei_unclear,110,以为,yiwei,19855,5,yiwei,
308,condition1,0,yiwei_unclear,103,以为,yiwei,12593,6,yiwei,
308,condition1,0,juede_unclear,115,觉得,juede,10104,7,juede,
308,condition1,0,yiwei_contrastive,9,以为,yiwei,15240,8,yiwei,
308,condition1,0,filler,902,以前,correct,6415,9,filler,
308,condition1,0,juede_contrastive,13,以为,yiwei,12008,10,juede,
308,condition1,1,filler,901,以前,correct,3695,11,filler,
308,condition1,1,juede_unclear,111,觉得,juede,3545,12,juede,
308,condition1,1,yiwei_contrastive,10,以为,yiwei,9088,13,yiwei,
308,condition1,1,yiwei_unclear,109,以为,yiwei,12728,14,yiwei,
308,condition1,1,filler,904,以后,correct,4832,15,filler,
308,condition1,1,juede_unclear,119,觉得,juede,5368,16,juede,
308,condition1,1,juede_contrastive,16,觉得,juede,4872,17,juede,
308,condition1,1,yiwei_contrastive,2,以为,yiwei,7353,18,yiwei,
308,condition1,1,yiwei_unclear,105,以为,yiwei,110535,19,yiwei,
308,condition1,1,juede_contrastive,12,觉得,juede,5727,20,juede,
308,condition1,2,juede_unclear,118,觉得,juede,8096,21,juede,
308,condition1,2,juede_unclear,117,觉得,juede,13545,22,juede,
308,condition1,2,filler,907,谈兵,correct,3167,23,filler,
308,condition1,2,juede_contrastive,20,觉得,juede,16905,24,juede,
308,condition1,2,yiwei_contrastive,1,以为,yiwei,12872,25,yiwei,
308,condition1,2,juede_contrastive,19,觉得,juede,4344,26,juede,
308,condition1,2,yiwei_unclear,104,以为,yiwei,5383,27,yiwei,
308,condition1,2,yiwei_contrastive,8,以为,yiwei,6105,28,yiwei,
308,condition1,2,filler,903,以后,correct,4663,29,filler,
308,condition1,2,yiwei_unclear,107,以为,yiwei,7872,30,yiwei,
308,condition1,3,yiwei_unclear,102,以为,yiwei,5440,31,yiwei,
308,condition1,3,yiwei_contrastive,7,以为,yiwei,22233,32,yiwei,
308,condition1,3,yiwei_contrastive,5,以为,yiwei,17768,33,yiwei,
308,condition1,3,yiwei_unclear,101,以为,yiwei,14503,34,yiwei,
308,condition1,3,juede_contrastive,15,以为,yiwei,18993,35,juede,
308,condition1,3,juede_unclear,120,觉得,juede,7184,36,juede,
308,condition1,3,juede_unclear,116,觉得,juede,4128,37,juede,
308,condition1,3,filler,905,桃源,correct,3023,38,filler,
308,condition1,3,filler,910,作气,correct,2176,39,filler,
308,condition1,3,juede_contrastive,11,觉得,juede,3776,40,juede,
308,condition1,4,juede_contrastive,14,觉得,juede,11991,41,juede,
308,condition1,4,juede_unclear,113,觉得,juede,3993,42,juede,
308,condition1,4,filler,906,点睛,correct,2511,43,filler,
308,condition1,4,yiwei_contrastive,6,以为,yiwei,15168,44,yiwei,
308,condition1,4,yiwei_contrastive,4,以为,yiwei,12752,45,yiwei,
308,condition1,4,filler,909,画蛇,correct,2071,46,filler,
308,condition1,4,juede_unclear,114,觉得,juede,9569,47,juede,
308,condition1,4,juede_contrastive,17,觉得,juede,10304,48,juede,
308,condition1,4,yiwei_unclear,108,觉得,juede,13447,49,yiwei,
308,condition1,4,yiwei_unclear,106,以为,yiwei,18964,50,yiwei,
319,condition1,practice,practice_1,301,lai,correct,,0,NA,
319,condition1,practice,practice_2,302,sunhuai,ambiguous,,0,NA,
319,condition1,practice,practice_3,303,ba,ambiguous,,0,NA,
319,condition1,practice,practice_4,304,qu,correct,,0,NA,
319,condition1,0,juede_contrastive,11,觉得,juede,45050,1,juede,
319,condition1,0,yiwei_contrastive,8,以为,yiwei,60847,2,yiwei,
319,condition1,0,juede_contrastive,19,觉得,juede,21007,3,juede,
319,condition1,0,yiwei_contrastive,5,以为,yiwei,14232,4,yiwei,
319,condition1,0,juede_unclear,115,觉得,juede,37283,5,juede,
319,condition1,0,filler,909,画蛇,correct,16735,6,filler,
319,condition1,0,yiwei_unclear,108,以为,yiwei,37087,7,yiwei,
319,condition1,0,juede_unclear,118,觉得,juede,62736,8,juede,
319,condition1,0,filler,905,桃源,correct,16532,9,filler,
319,condition1,0,yiwei_unclear,103,以为,yiwei,32901,10,yiwei,
319,condition1,1,filler,907,谈兵,correct,15355,11,filler,
319,condition1,1,yiwei_unclear,106,以为,yiwei,44985,12,yiwei,
319,condition1,1,filler,901,以前,correct,27554,13,filler,
319,condition1,1,juede_unclear,112,觉得,juede,32479,14,juede,
319,condition1,1,juede_unclear,113,觉得,juede,23684,15,juede,
319,condition1,1,yiwei_contrastive,7,以为,yiwei,46401,16,yiwei,
319,condition1,1,yiwei_unclear,101,以为,yiwei,19007,17,yiwei,
319,condition1,1,juede_contrastive,17,觉得,juede,25207,18,juede,
319,condition1,1,juede_contrastive,15,觉得,juede,47564,19,juede,
319,condition1,1,yiwei_contrastive,10,以为,yiwei,22267,20,yiwei,
319,condition1,2,yiwei_contrastive,9,以为,yiwei,37582,21,yiwei,
319,condition1,2,juede_contrastive,16,觉得,juede,21895,22,juede,
319,condition1,2,juede_unclear,116,以为,yiwei,50422,23,juede,
319,condition1,2,yiwei_unclear,104,觉得,juede,33660,24,yiwei,
319,condition1,2,filler,908,拆桥,correct,47458,25,filler,
319,condition1,2,juede_unclear,114,觉得,juede,26699,26,juede,
319,condition1,2,yiwei_contrastive,2,以为,yiwei,39778,27,yiwei,
319,condition1,2,juede_contrastive,18,觉得,juede,26070,28,juede,
319,condition1,2,yiwei_unclear,102,以为,yiwei,49026,29,yiwei,
319,condition1,2,filler,902,以前,correct,14466,30,filler,
319,condition1,3,juede_contrastive,12,觉得,juede,26039,31,juede,
319,condition1,3,yiwei_unclear,109,以为,yiwei,31892,32,yiwei,
319,condition1,3,filler,903,以后,correct,34309,33,filler,
319,condition1,3,yiwei_contrastive,1,以为,yiwei,38511,34,yiwei,
319,condition1,3,juede_contrastive,20,觉得,juede,38961,35,juede,
319,condition1,3,juede_unclear,119,觉得,juede,19606,36,juede,
319,condition1,3,filler,906,点睛,correct,21453,37,filler,
319,condition1,3,juede_unclear,111,觉得,juede,16620,38,juede,
319,condition1,3,yiwei_unclear,110,以为,yiwei,67199,39,yiwei,
319,condition1,3,yiwei_contrastive,3,以为,yiwei,39839,40,yiwei,
319,condition1,4,filler,910,作气,correct,27559,41,filler,
319,condition1,4,yiwei_unclear,105,以为,yiwei,57875,42,yiwei,
319,condition1,4,juede_contrastive,13,觉得,juede,17241,43,juede,
319,condition1,4,juede_unclear,120,觉得,juede,39939,44,juede,
319,condition1,4,yiwei_contrastive,4,以为,yiwei,69457,45,yiwei,
319,condition1,4,yiwei_unclear,107,以为,yiwei,23539,46,yiwei,
319,condition1,4,filler,904,以后,correct,25866,47,filler,
319,condition1,4,juede_contrastive,14,觉得,juede,30353,48,juede,
319,condition1,4,yiwei_contrastive,6,以为,yiwei,42096,49,yiwei,
319,condition1,4,juede_unclear,117,觉得,juede,44024,50,juede,
283,condition1,practice,practice_1,301,lai,correct,,0,NA,
283,condition1,practice,practice_2,302,pohuai,ambiguous,,0,NA,
283,condition1,practice,practice_3,303,jiang,ambiguous,,0,NA,
283,condition1,practice,practice_4,304,qu,correct,,0,NA,
283,condition1,0,juede_unclear,115,觉得,juede,20428,1,juede,
283,condition1,0,yiwei_contrastive,4,以为,yiwei,27163,2,yiwei,
283,condition1,0,juede_unclear,113,觉得,juede,18604,3,juede,
283,condition1,0,filler,904,以后,correct,11346,4,filler,
283,condition1,0,yiwei_contrastive,10,觉得,juede,12229,5,yiwei,
283,condition1,0,juede_contrastive,15,觉得,juede,24031,6,juede,
283,condition1,0,yiwei_unclear,104,以为,yiwei,24350,7,yiwei,
283,condition1,0,filler,906,点睛,correct,17067,8,filler,
283,condition1,0,yiwei_unclear,106,以为,yiwei,23629,9,yiwei,
283,condition1,0,juede_contrastive,17,觉得,juede,9702,10,juede,
283,condition1,1,filler,908,拆桥,correct,7235,11,filler,
283,condition1,1,yiwei_unclear,103,以为,yiwei,18443,12,yiwei,
283,condition1,1,juede_contrastive,12,觉得,juede,7908,13,juede,
283,condition1,1,yiwei_contrastive,6,以为,yiwei,15380,14,yiwei,
283,condition1,1,juede_unclear,119,觉得,juede,15239,15,juede,
283,condition1,1,filler,905,桃源,correct,11390,16,filler,
283,condition1,1,juede_unclear,114,觉得,juede,8631,17,juede,
283,condition1,1,yiwei_contrastive,3,以为,yiwei,14267,18,yiwei,
283,condition1,1,juede_contrastive,11,觉得,juede,9139,19,juede,
283,condition1,1,yiwei_unclear,109,以为,yiwei,9395,20,yiwei,
283,condition1,2,juede_unclear,117,觉得,juede,23111,21,juede,
283,condition1,2,juede_contrastive,19,觉得,juede,11398,22,juede,
283,condition1,2,filler,902,以前,correct,7195,23,filler,
283,condition1,2,yiwei_unclear,110,以为,yiwei,17016,24,yiwei,
283,condition1,2,filler,907,谈兵,correct,7371,25,filler,
283,condition1,2,juede_contrastive,13,觉得,juede,11002,26,juede,
283,condition1,2,juede_unclear,112,觉得,juede,10368,27,juede,
283,condition1,2,yiwei_contrastive,8,以为,yiwei,16442,28,yiwei,
283,condition1,2,yiwei_unclear,101,以为,yiwei,10624,29,yiwei,
283,condition1,2,yiwei_contrastive,5,以为,yiwei,16226,30,yiwei,
283,condition1,3,yiwei_unclear,102,觉得,juede,20183,31,yiwei,
283,condition1,3,yiwei_contrastive,7,以为,yiwei,17661,32,yiwei,
283,condition1,3,juede_contrastive,20,觉得,juede,14984,33,juede,
283,condition1,3,juede_contrastive,18,觉得,juede,10484,34,juede,
283,condition1,3,filler,903,以后,correct,7361,35,filler,
283,condition1,3,juede_unclear,118,觉得,juede,7953,36,juede,
283,condition1,3,juede_unclear,116,觉得,juede,11018,37,juede,
283,condition1,3,filler,910,作气,correct,7340,38,filler,
283,condition1,3,yiwei_contrastive,1,以为,yiwei,8278,39,yiwei,
283,condition1,3,yiwei_unclear,107,以为,yiwei,9073,40,yiwei,
283,condition1,4,juede_contrastive,16,觉得,juede,9737,41,juede,
283,condition1,4,juede_unclear,111,觉得,juede,6936,42,juede,
283,condition1,4,juede_contrastive,14,觉得,juede,6498,43,juede,
283,condition1,4,yiwei_unclear,105,以为,yiwei,19830,44,yiwei,
283,condition1,4,yiwei_unclear,108,以为,yiwei,19154,45,yiwei,
283,condition1,4,juede_unclear,120,觉得,juede,7414,46,juede,
283,condition1,4,filler,909,画蛇,correct,7488,47,filler,
283,condition1,4,yiwei_contrastive,2,以为,yiwei,7918,48,yiwei,
283,condition1,4,filler,901,以前,correct,7779,49,filler,
283,condition1,4,yiwei_contrastive,9,以为,yiwei,16088,50,yiwei,
346,condition1,practice,practice_1,301,lai,correct,,0,NA,
346,condition1,practice,practice_2,302,pohuai,ambiguous,,0,NA,
346,condition1,practice,practice_3,303,jiang,ambiguous,,0,NA,
346,condition1,practice,practice_4,304,qu,correct,,0,NA,
346,condition1,0,juede_contrastive,15,觉得,juede,29097,1,juede,
346,condition1,0,yiwei_contrastive,6,以为,yiwei,13213,2,yiwei,
346,condition1,0,juede_contrastive,20,觉得,juede,21059,3,juede,
346,condition1,0,yiwei_unclear,107,以为,yiwei,21109,4,yiwei,
346,condition1,0,filler,901,以前,correct,14719,5,filler,
346,condition1,0,filler,903,以后,correct,11522,6,filler,
346,condition1,0,juede_unclear,118,觉得,juede,14409,7,juede,
346,condition1,0,yiwei_unclear,110,觉得,juede,48924,8,yiwei,
346,condition1,0,yiwei_contrastive,5,以为,yiwei,22571,9,yiwei,
346,condition1,0,juede_unclear,116,觉得,juede,19123,10,juede,
346,condition1,1,filler,910,作气,correct,10911,11,filler,
346,condition1,1,yiwei_contrastive,2,以为,yiwei,17545,12,yiwei,
346,condition1,1,juede_contrastive,19,觉得,juede,11010,13,juede,
346,condition1,1,yiwei_contrastive,9,以为,yiwei,44573,14,yiwei,
346,condition1,1,yiwei_unclear,101,以为,yiwei,7625,15,yiwei,
346,condition1,1,juede_unclear,117,以为,yiwei,36224,16,juede,
346,condition1,1,juede_unclear,120,觉得,juede,19946,17,juede,
346,condition1,1,juede_contrastive,17,觉得,juede,36597,18,juede,
346,condition1,1,filler,909,画蛇,correct,13162,19,filler,
346,condition1,1,yiwei_unclear,103,以为,yiwei,16201,20,yiwei,
346,condition1,2,filler,906,点睛,correct,9858,21,filler,
346,condition1,2,juede_contrastive,13,以为,yiwei,9368,22,juede,
346,condition1,2,yiwei_unclear,102,觉得,juede,10913,23,yiwei,
346,condition1,2,yiwei_unclear,106,以为,yiwei,20699,24,yiwei,
346,condition1,2,juede_unclear,112,觉得,juede,15751,25,juede,
346,condition1,2,filler,902,以前,correct,8087,26,filler,
346,condition1,2,juede_contrastive,14,觉得,juede,16988,27,juede,
346,condition1,2,juede_unclear,111,觉得,juede,10334,28,juede,
346,condition1,2,yiwei_contrastive,7,以为,yiwei,29661,29,yiwei,
346,condition1,2,yiwei_contrastive,1,以为,yiwei,29946,30,yiwei,
346,condition1,3,yiwei_unclear,105,以为,yiwei,15475,31,yiwei,
346,condition1,3,yiwei_contrastive,8,以为,yiwei,45732,32,yiwei,
346,condition1,3,juede_contrastive,12,觉得,juede,10808,33,juede,
346,condition1,3,yiwei_unclear,108,觉得,juede,21395,34,yiwei,
346,condition1,3,yiwei_contrastive,10,以为,yiwei,5513,35,yiwei,
346,condition1,3,filler,905,桃源,correct,6882,36,filler,
346,condition1,3,filler,904,以后,correct,9971,37,filler,
346,condition1,3,juede_contrastive,18,觉得,juede,35478,38,juede,
346,condition1,3,juede_unclear,115,觉得,juede,12775,39,juede,
346,condition1,3,juede_unclear,113,觉得,juede,8827,40,juede,
346,condition1,4,filler,907,谈兵,correct,3648,41,filler,
346,condition1,4,juede_unclear,119,觉得,juede,14253,42,juede,
346,condition1,4,yiwei_unclear,104,以为,yiwei,10369,43,yiwei,
346,condition1,4,juede_contrastive,11,觉得,juede,5954,44,juede,
346,condition1,4,yiwei_contrastive,3,以为,yiwei,13436,45,yiwei,
346,condition1,4,juede_contrastive,16,觉得,juede,7794,46,juede,
346,condition1,4,yiwei_unclear,109,以为,yiwei,9580,47,yiwei,
346,condition1,4,yiwei_contrastive,4,以为,yiwei,31447,48,yiwei,
346,condition1,4,juede_unclear,114,觉得,juede,14045,49,juede,
346,condition1,4,filler,908,拆桥,correct,4274,50,filler,
323,condition1,practice,practice_1,301,lai,correct,,0,NA,
323,condition1,practice,practice_2,302,sunhuai,ambiguous,,0,NA,
323,condition1,practice,practice_3,303,ba,ambiguous,,0,NA,
323,condition1,practice,practice_4,304,qu,correct,,0,NA,
323,condition1,0,juede_unclear,120,觉得,juede,41443,1,juede,
323,condition1,0,filler,910,作气,correct,33069,2,filler,
323,condition1,0,yiwei_contrastive,7,以为,yiwei,65764,3,yiwei,
323,condition1,0,yiwei_contrastive,10,觉得,juede,30431,4,yiwei,
323,condition1,0,filler,901,以前,correct,30303,5,filler,
323,condition1,0,juede_contrastive,18,觉得,juede,41577,6,juede,
323,condition1,0,juede_contrastive,17,以为,yiwei,36000,7,juede,
323,condition1,0,yiwei_unclear,102,觉得,juede,44148,8,yiwei,
323,condition1,0,yiwei_unclear,109,以为,yiwei,32122,9,yiwei,
323,condition1,0,juede_unclear,116,以为,yiwei,55602,10,juede,
323,condition1,1,filler,905,桃源,correct,28386,11,filler,
323,condition1,1,yiwei_contrastive,9,以为,yiwei,67796,12,yiwei,
323,condition1,1,juede_contrastive,15,觉得,juede,51624,13,juede,
323,condition1,1,filler,902,以前,correct,21922,14,filler,
323,condition1,1,yiwei_contrastive,4,以为,yiwei,53176,15,yiwei,
323,condition1,1,juede_contrastive,13,觉得,juede,33166,16,juede,
323,condition1,1,juede_unclear,119,觉得,juede,24806,17,juede,
323,condition1,1,yiwei_unclear,106,以为,yiwei,29366,18,yiwei,
323,condition1,1,juede_unclear,115,觉得,juede,56746,19,juede,
323,condition1,1,yiwei_unclear,110,以为,yiwei,35575,20,yiwei,
323,condition1,2,yiwei_contrastive,2,以为,yiwei,17527,21,yiwei,
323,condition1,2,yiwei_unclear,104,以为,yiwei,22933,22,yiwei,
323,condition1,2,yiwei_unclear,107,觉得,juede,25948,23,yiwei,
323,condition1,2,juede_contrastive,20,觉得,juede,47536,24,juede,
323,condition1,2,yiwei_contrastive,3,以为,yiwei,19488,25,yiwei,
323,condition1,2,filler,903,以前,incorrect,85748,26,filler,
323,condition1,2,juede_unclear,114,觉得,juede,51664,27,juede,
323,condition1,2,filler,909,画蛇,correct,23575,28,filler,
323,condition1,2,juede_unclear,118,觉得,juede,41458,29,juede,
323,condition1,2,juede_contrastive,16,觉得,juede,26992,30,juede,
323,condition1,3,yiwei_unclear,105,以为,yiwei,42644,31,yiwei,
323,condition1,3,filler,907,谈兵,correct,18485,32,filler,
323,condition1,3,juede_contrastive,14,觉得,juede,19553,33,juede,
323,condition1,3,filler,904,以后,correct,20798,34,filler,
323,condition1,3,juede_unclear,111,觉得,juede,11536,35,juede,
323,condition1,3,yiwei_unclear,103,以为,yiwei,22402,36,yiwei,
323,condition1,3,juede_unclear,112,觉得,juede,28329,37,juede,
323,condition1,3,yiwei_contrastive,8,以为,yiwei,38895,38,yiwei,
323,condition1,3,yiwei_contrastive,6,以为,yiwei,22724,39,yiwei,
323,condition1,3,juede_contrastive,11,觉得,juede,27437,40,juede,
323,condition1,4,juede_unclear,113,觉得,juede,27028,41,juede,
323,condition1,4,filler,908,拆桥,correct,22088,42,filler,
323,condition1,4,juede_unclear,117,觉得,juede,29886,43,juede,
323,condition1,4,yiwei_unclear,108,以为,yiwei,35594,44,yiwei,
323,condition1,4,yiwei_unclear,101,以为,yiwei,44398,45,yiwei,
323,condition1,4,juede_contrastive,19,觉得,juede,39258,46,juede,
323,condition1,4,yiwei_contrastive,5,以为,yiwei,19552,47,yiwei,
323,condition1,4,filler,906,点睛,correct,24446,48,filler,
323,condition1,4,juede_contrastive,12,觉得,juede,51294,49,juede,
323,condition1,4,yiwei_contrastive,1,以为,yiwei,15935,50,yiwei,
359,condition1,practice,practice_1,301,lai,correct,,0,NA,
359,condition1,practice,practice_2,302,pohuai,ambiguous,,0,NA,
359,condition1,practice,practice_3,303,ba,ambiguous,,0,NA,
359,condition1,practice,practice_4,304,qu,correct,,0,NA,
359,condition1,0,juede_contrastive,19,觉得,juede,18724,1,juede,
359,condition1,0,juede_contrastive,18,觉得,juede,23733,2,juede,
359,condition1,0,yiwei_contrastive,6,以为,yiwei,12609,3,yiwei,
359,condition1,0,filler,907,谈兵,correct,10590,4,filler,
359,condition1,0,yiwei_contrastive,7,以为,yiwei,13101,5,yiwei,
359,condition1,0,yiwei_unclear,108,觉得,juede,20388,6,yiwei,
359,condition1,0,yiwei_unclear,110,以为,yiwei,19842,7,yiwei,
359,condition1,0,juede_unclear,116,觉得,juede,24244,8,juede,
359,condition1,0,filler,910,作气,correct,12517,9,filler,
359,condition1,0,juede_unclear,117,觉得,juede,31745,10,juede,
359,condition1,1,yiwei_contrastive,8,以为,yiwei,23777,11,yiwei,
359,condition1,1,filler,906,点睛,correct,12740,12,filler,
359,condition1,1,juede_unclear,113,觉得,juede,12269,13,juede,
359,condition1,1,juede_contrastive,17,以为,yiwei,11875,14,juede,
359,condition1,1,yiwei_unclear,107,以为,yiwei,19017,15,yiwei,
359,condition1,1,yiwei_unclear,101,以为,yiwei,18150,16,yiwei,
359,condition1,1,yiwei_contrastive,10,以为,yiwei,12209,17,yiwei,
359,condition1,1,filler,904,以后,correct,14625,18,filler,
359,condition1,1,juede_contrastive,12,觉得,juede,14191,19,juede,
359,condition1,1,juede_unclear,119,觉得,juede,11859,20,juede,
359,condition1,2,yiwei_contrastive,1,以为,yiwei,13110,21,yiwei,
359,condition1,2,juede_contrastive,14,觉得,juede,15414,22,juede,
359,condition1,2,filler,908,拆桥,correct,12007,23,filler,
359,condition1,2,yiwei_unclear,104,以为,yiwei,14240,24,yiwei,
359,condition1,2,yiwei_unclear,106,以为,yiwei,14872,25,yiwei,
359,condition1,2,filler,903,以后,correct,10181,26,filler,
359,condition1,2,juede_unclear,115,觉得,juede,14080,27,juede,
359,condition1,2,juede_unclear,111,觉得,juede,13548,28,juede,
359,condition1,2,juede_contrastive,15,觉得,juede,25172,29,juede,
359,condition1,2,yiwei_contrastive,2,以为,yiwei,12151,30,yiwei,
359,condition1,3,filler,901,以前,correct,17869,31,filler,
359,condition1,3,juede_unclear,114,觉得,juede,16021,32,juede,
359,condition1,3,filler,902,以前,correct,8758,33,filler,
359,condition1,3,juede_contrastive,11,觉得,juede,11842,34,juede,
359,condition1,3,yiwei_unclear,103,以为,yiwei,18348,35,yiwei,
359,condition1,3,yiwei_contrastive,9,觉得,juede,27373,36,yiwei,
359,condition1,3,yiwei_unclear,109,以为,yiwei,30372,37,yiwei,
359,condition1,3,juede_contrastive,16,觉得,juede,15338,38,juede,
359,condition1,3,yiwei_contrastive,3,以为,yiwei,12935,39,yiwei,
359,condition1,3,juede_unclear,118,觉得,juede,16567,40,juede,
359,condition1,4,yiwei_unclear,105,以为,yiwei,13906,41,yiwei,
359,condition1,4,juede_contrastive,13,觉得,juede,15494,42,juede,
359,condition1,4,juede_contrastive,20,觉得,juede,13397,43,juede,
359,condition1,4,filler,905,桃源,correct,9861,44,filler,
359,condition1,4,juede_unclear,112,觉得,juede,16854,45,juede,
359,condition1,4,juede_unclear,120,以为,yiwei,11483,46,juede,
359,condition1,4,yiwei_unclear,102,觉得,juede,18810,47,yiwei,
359,condition1,4,yiwei_contrastive,5,以为,yiwei,6771,48,yiwei,
359,condition1,4,filler,909,画蛇,correct,6549,49,filler,
359,condition1,4,yiwei_contrastive,4,以为,yiwei,12244,50,yiwei,
337,condition1,practice,practice_1,301,lai,correct,,0,NA,
337,condition1,practice,practice_2,302,pohuai,ambiguous,,0,NA,
337,condition1,practice,practice_3,303,ba,ambiguous,,0,NA,
337,condition1,practice,practice_4,304,qu,correct,,0,NA,
337,condition1,0,filler,903,以后,correct,21696,1,filler,
337,condition1,0,filler,908,拆桥,correct,9411,2,filler,
337,condition1,0,yiwei_contrastive,4,以为,yiwei,31292,3,yiwei,
337,condition1,0,juede_contrastive,18,觉得,juede,16526,4,juede,
337,condition1,0,yiwei_unclear,106,以为,yiwei,24286,5,yiwei,
337,condition1,0,yiwei_contrastive,9,以为,yiwei,25503,6,yiwei,
337,condition1,0,juede_unclear,118,觉得,juede,21234,7,juede,
337,condition1,0,juede_contrastive,16,觉得,juede,55248,8,juede,
337,condition1,0,yiwei_unclear,110,以为,yiwei,15194,9,yiwei,
337,condition1,0,juede_unclear,114,觉得,juede,13692,10,juede,
337,condition1,1,juede_contrastive,15,觉得,juede,34568,11,juede,
337,condition1,1,yiwei_unclear,103,以为,yiwei,16362,12,yiwei,
337,condition1,1,yiwei_contrastive,6,以为,yiwei,11446,13,yiwei,
337,condition1,1,juede_unclear,111,觉得,juede,8896,14,juede,
337,condition1,1,juede_contrastive,12,觉得,juede,12812,15,juede,
337,condition1,1,juede_unclear,113,觉得,juede,12092,16,juede,
337,condition1,1,yiwei_contrastive,10,以为,yiwei,11968,17,yiwei,
337,condition1,1,yiwei_unclear,105,以为,yiwei,75422,18,yiwei,
337,condition1,1,filler,901,以前,correct,10332,19,filler,
337,condition1,1,filler,909,画蛇,correct,11084,20,filler,
337,condition1,2,juede_unclear,120,觉得,juede,13149,21,juede,
337,condition1,2,yiwei_unclear,109,以为,yiwei,9271,22,yiwei,
337,condition1,2,juede_contrastive,11,觉得,juede,11956,23,juede,
337,condition1,2,yiwei_contrastive,5,以为,yiwei,11958,24,yiwei,
337,condition1,2,filler,907,谈兵,correct,7008,25,filler,
337,condition1,2,yiwei_unclear,107,以为,yiwei,8734,26,yiwei,
337,condition1,2,juede_contrastive,13,觉得,juede,21914,27,juede,
337,condition1,2,juede_unclear,116,觉得,juede,25864,28,juede,
337,condition1,2,filler,906,点睛,correct,63616,29,filler,
337,condition1,2,yiwei_contrastive,8,以为,yiwei,15360,30,yiwei,
337,condition1,3,filler,910,作气,correct,14040,31,filler,
337,condition1,3,yiwei_contrastive,3,以为,yiwei,6370,32,yiwei,
337,condition1,3,yiwei_unclear,102,觉得,juede,21340,33,yiwei,
337,condition1,3,juede_unclear,115,觉得,juede,19090,34,juede,
337,condition1,3,juede_unclear,117,觉得,juede,17756,35,juede,
337,condition1,3,yiwei_contrastive,2,以为,yiwei,11234,36,yiwei,
337,condition1,3,filler,905,桃源,correct,8724,37,filler,
337,condition1,3,juede_contrastive,20,觉得,juede,44006,38,juede,
337,condition1,3,yiwei_unclear,108,觉得,juede,14116,39,yiwei,
337,condition1,3,juede_contrastive,14,觉得,juede,15647,40,juede,
337,condition1,4,juede_unclear,112,觉得,juede,11647,41,juede,
337,condition1,4,juede_contrastive,19,觉得,juede,9356,42,juede,
337,condition1,4,filler,904,以后,correct,12981,43,filler,
337,condition1,4,yiwei_contrastive,1,以为,yiwei,15793,44,yiwei,
337,condition1,4,filler,902,以前,correct,7398,45,filler,
337,condition1,4,juede_unclear,119,觉得,juede,13927,46,juede,
337,condition1,4,yiwei_unclear,104,以为,yiwei,9653,47,yiwei,
337,condition1,4,yiwei_unclear,101,觉得,juede,30638,48,yiwei,
337,condition1,4,juede_contrastive,17,觉得,juede,10970,49,juede,
337,condition1,4,yiwei_contrastive,7,以为,yiwei,9485,50,yiwei,
295,condition1,practice,practice_1,301,lai,correct,,0,NA,
295,condition1,practice,practice_2,302,pohuai,ambiguous,,0,NA,
295,condition1,practice,practice_3,303,ba,ambiguous,,0,NA,
295,condition1,practice,practice_4,304,qu,correct,,0,NA,
295,condition1,0,juede_unclear,113,觉得,juede,11917,1,juede,
295,condition1,0,juede_contrastive,17,以为,yiwei,13298,2,juede,
295,condition1,0,yiwei_unclear,107,以为,yiwei,9180,3,yiwei,
295,condition1,0,yiwei_unclear,104,以为,yiwei,8677,4,yiwei,
295,condition1,0,filler,905,花园,incorrect,15056,5,filler,
295,condition1,0,filler,908,拆桥,correct,15701,6,filler,
295,condition1,0,juede_unclear,114,觉得,juede,21782,7,juede,
295,condition1,0,yiwei_contrastive,9,以为,yiwei,21469,8,yiwei,
295,condition1,0,yiwei_contrastive,7,以为,yiwei,11150,9,yiwei,
295,condition1,0,juede_contrastive,19,觉得,juede,8082,10,juede,
295,condition1,1,filler,909,画蛇,correct,19355,11,filler,
295,condition1,1,yiwei_contrastive,5,以为,yiwei,3411,12,yiwei,
295,condition1,1,juede_contrastive,14,觉得,juede,3632,13,juede,
295,condition1,1,juede_unclear,119,觉得,juede,2936,14,juede,
295,condition1,1,yiwei_unclear,105,以为,yiwei,4054,15,yiwei,
295,condition1,1,juede_unclear,120,以为,yiwei,5964,16,juede,
295,condition1,1,filler,906,点睛,correct,2977,17,filler,
295,condition1,1,juede_contrastive,15,以为,yiwei,10113,18,juede,
295,condition1,1,yiwei_unclear,106,觉得,juede,3742,19,yiwei,
295,condition1,1,yiwei_contrastive,6,以为,yiwei,2581,20,yiwei,
295,condition1,2,juede_contrastive,18,以为,yiwei,5340,21,juede,
295,condition1,2,juede_unclear,112,觉得,juede,4210,22,juede,
295,condition1,2,filler,910,作气,correct,2423,23,filler,
295,condition1,2,yiwei_contrastive,2,觉得,juede,12700,24,yiwei,
295,condition1,2,filler,907,谈兵,correct,2838,25,filler,
295,condition1,2,yiwei_unclear,110,以为,yiwei,3823,26,yiwei,
295,condition1,2,juede_unclear,118,觉得,juede,2707,27,juede,
295,condition1,2,yiwei_unclear,109,以为,yiwei,2870,28,yiwei,
295,condition1,2,juede_contrastive,16,觉得,juede,4747,29,juede,
295,condition1,2,yiwei_contrastive,3,觉得,juede,2945,30,yiwei,
295,condition1,3,filler,901,以前,correct,3260,31,filler,
295,condition1,3,yiwei_unclear,101,以为,yiwei,2848,32,yiwei,
295,condition1,3,juede_contrastive,13,觉得,juede,9269,33,juede,
295,condition1,3,juede_contrastive,12,觉得,juede,2734,34,juede,
295,condition1,3,yiwei_contrastive,1,以为,yiwei,2005,35,yiwei,
295,condition1,3,juede_unclear,117,以为,yiwei,3470,36,juede,
295,condition1,3,juede_unclear,111,觉得,juede,1747,37,juede,
295,condition1,3,yiwei_contrastive,8,觉得,juede,2932,38,yiwei,
295,condition1,3,filler,902,以前,correct,6033,39,filler,
295,condition1,3,yiwei_unclear,102,以为,yiwei,11193,40,yiwei,
295,condition1,4,yiwei_unclear,108,觉得,juede,6196,41,yiwei,
295,condition1,4,yiwei_contrastive,10,以为,yiwei,2548,42,yiwei,
295,condition1,4,juede_contrastive,20,觉得,juede,8990,43,juede,
295,condition1,4,juede_contrastive,11,觉得,juede,4714,44,juede,
295,condition1,4,juede_unclear,115,以为,yiwei,2390,45,juede,
295,condition1,4,yiwei_unclear,103,以为,yiwei,4541,46,yiwei,
295,condition1,4,juede_unclear,116,以为,yiwei,8077,47,juede,
295,condition1,4,filler,904,以后,correct,4414,48,filler,
295,condition1,4,filler,903,以后,correct,5333,49,filler,
295,condition1,4,yiwei_contrastive,4,觉得,juede,3720,50,yiwei,
331,condition1,practice,practice_1,301,lai,correct,,0,NA,
331,condition1,practice,practice_2,302,pohuai,ambiguous,,0,NA,
331,condition1,practice,practice_3,303,jiang,ambiguous,,0,NA,
331,condition1,practice,practice_4,304,qu,correct,,0,NA,
331,condition1,0,yiwei_unclear,101,以为,yiwei,8695,1,yiwei,
331,condition1,0,yiwei_contrastive,8,以为,yiwei,13383,2,yiwei,
331,condition1,0,juede_contrastive,15,觉得,juede,30087,3,juede,
331,condition1,0,filler,907,谈兵,correct,30752,4,filler,
331,condition1,0,juede_contrastive,18,觉得,juede,11096,5,juede,
331,condition1,0,yiwei_unclear,104,以为,yiwei,9184,6,yiwei,
331,condition1,0,yiwei_contrastive,3,以为,yiwei,74656,7,yiwei,
331,condition1,0,filler,901,以前,correct,11480,8,filler,
331,condition1,0,juede_unclear,113,觉得,juede,21928,9,juede,
331,condition1,0,juede_unclear,117,以为,yiwei,4616,10,juede,
331,condition1,1,juede_unclear,119,觉得,juede,3400,11,juede,
331,condition1,1,juede_contrastive,12,觉得,juede,2152,12,juede,
331,condition1,1,yiwei_contrastive,9,以为,yiwei,8616,13,yiwei,
331,condition1,1,filler,905,桃源,correct,2440,14,filler,
331,condition1,1,juede_contrastive,16,觉得,juede,5640,15,juede,
331,condition1,1,yiwei_contrastive,4,以为,yiwei,24752,16,yiwei,
331,condition1,1,yiwei_unclear,107,以为,yiwei,3328,17,yiwei,
331,condition1,1,filler,903,以后,correct,3176,18,filler,
331,condition1,1,yiwei_unclear,106,以为,yiwei,58208,19,yiwei,
331,condition1,1,juede_unclear,111,觉得,juede,2800,20,juede,
331,condition1,2,yiwei_unclear,103,以为,yiwei,2208,21,yiwei,
331,condition1,2,juede_contrastive,14,觉得,juede,3791,22,juede,
331,condition1,2,filler,902,以前,correct,2584,23,filler,
331,condition1,2,juede_unclear,112,觉得,juede,2640,24,juede,
331,condition1,2,juede_contrastive,13,以为,yiwei,3225,25,juede,
331,condition1,2,yiwei_unclear,110,觉得,juede,10503,26,yiwei,
331,condition1,2,yiwei_contrastive,5,以为,yiwei,2856,27,yiwei,
331,condition1,2,filler,909,画蛇,correct,3096,28,filler,
331,condition1,2,yiwei_contrastive,6,以为,yiwei,2803,29,yiwei,
331,condition1,2,juede_unclear,120,觉得,juede,1920,30,juede,
331,condition1,3,filler,904,以后,correct,4168,31,filler,
331,condition1,3,juede_unclear,115,觉得,juede,3199,32,juede,
331,condition1,3,yiwei_contrastive,1,以为,yiwei,3464,33,yiwei,
331,condition1,3,filler,906,点睛,correct,3696,34,filler,
331,condition1,3,yiwei_contrastive,2,以为,yiwei,3760,35,yiwei,
331,condition1,3,yiwei_unclear,108,觉得,juede,2791,36,yiwei,
331,condition1,3,juede_contrastive,20,觉得,juede,3768,37,juede,
331,condition1,3,yiwei_unclear,109,以为,yiwei,2457,38,yiwei,
331,condition1,3,juede_contrastive,11,觉得,juede,11151,39,juede,
331,condition1,3,juede_unclear,118,觉得,juede,2537,40,juede,
331,condition1,4,filler,908,拆桥,correct,2687,41,filler,
331,condition1,4,filler,910,作气,correct,1649,42,filler,
331,condition1,4,juede_unclear,114,觉得,juede,2176,43,juede,
331,condition1,4,juede_unclear,116,觉得,juede,2207,44,juede,
331,condition1,4,yiwei_contrastive,7,觉得,juede,1744,45,yiwei,
331,condition1,4,yiwei_contrastive,10,以为,yiwei,1584,46,yiwei,
331,condition1,4,yiwei_unclear,102,以为,yiwei,1424,47,yiwei,
331,condition1,4,juede_contrastive,19,觉得,juede,1619,48,juede,
331,condition1,4,juede_contrastive,17,以为,yiwei,1816,49,juede,
331,condition1,4,yiwei_unclear,105,以为,yiwei,2809,50,yiwei,
353,condition1,practice,practice_1,301,lai,correct,,0,NA,
353,condition1,practice,practice_2,302,pohuai,ambiguous,,0,NA,
353,condition1,practice,practice_3,303,jiang,ambiguous,,0,NA,
353,condition1,practice,practice_4,304,qu,correct,,0,NA,
353,condition1,0,juede_contrastive,20,觉得,juede,24616,1,juede,
353,condition1,0,juede_unclear,111,觉得,juede,24936,2,juede,
353,condition1,0,juede_contrastive,16,觉得,juede,36517,3,juede,
353,condition1,0,yiwei_contrastive,5,以为,yiwei,19117,4,yiwei,
353,condition1,0,yiwei_unclear,107,以为,yiwei,20818,5,yiwei,
353,condition1,0,filler,908,拆桥,correct,18568,6,filler,
353,condition1,0,filler,901,以前,correct,15319,7,filler,
353,condition1,0,juede_unclear,114,觉得,juede,34117,8,juede,
353,condition1,0,yiwei_contrastive,8,以为,yiwei,36725,9,yiwei,
353,condition1,0,yiwei_unclear,101,以为,yiwei,19045,10,yiwei,
353,condition1,1,yiwei_unclear,102,以为,yiwei,50286,11,yiwei,
353,condition1,1,juede_contrastive,18,觉得,juede,16284,12,juede,
353,condition1,1,yiwei_unclear,106,觉得,juede,20234,13,yiwei,
353,condition1,1,filler,907,谈兵,correct,13384,14,filler,
353,condition1,1,yiwei_contrastive,4,以为,yiwei,18818,15,yiwei,
353,condition1,1,filler,904,以后,correct,12784,16,filler,
353,condition1,1,juede_unclear,113,觉得,juede,14034,17,juede,
353,condition1,1,juede_contrastive,13,觉得,juede,16651,18,juede,
353,condition1,1,yiwei_contrastive,2,以为,yiwei,16633,19,yiwei,
353,condition1,1,juede_unclear,120,觉得,juede,19056,20,juede,
353,condition1,2,juede_contrastive,15,以为,yiwei,25451,21,juede,
353,condition1,2,yiwei_contrastive,6,以为,yiwei,15634,22,yiwei,
353,condition1,2,filler,903,以后,correct,13501,23,filler,
353,condition1,2,juede_unclear,119,觉得,juede,25134,24,juede,
353,condition1,2,juede_unclear,116,觉得,juede,36412,25,juede,
353,condition1,2,yiwei_unclear,109,以为,yiwei,33686,26,yiwei,
353,condition1,2,yiwei_contrastive,7,以为,yiwei,14436,27,yiwei,
353,condition1,2,filler,910,作气,correct,11650,28,filler,
353,condition1,2,yiwei_unclear,108,以为,yiwei,39020,29,yiwei,
353,condition1,2,juede_contrastive,14,觉得,juede,29402,30,juede,
353,condition1,3,juede_contrastive,19,觉得,juede,11917,31,juede,
353,condition1,3,filler,902,以前,correct,11491,32,filler,
353,condition1,3,juede_unclear,118,觉得,juede,28817,33,juede,
353,condition1,3,yiwei_unclear,103,以为,yiwei,13099,34,yiwei,
353,condition1,3,filler,906,点睛,correct,12785,35,filler,
353,condition1,3,yiwei_unclear,105,以为,yiwei,13315,36,yiwei,
353,condition1,3,yiwei_contrastive,9,以为,yiwei,24585,37,yiwei,
353,condition1,3,juede_unclear,112,觉得,juede,13839,38,juede,
353,condition1,3,yiwei_contrastive,10,以为,yiwei,10149,39,yiwei,
353,condition1,3,juede_contrastive,11,觉得,juede,13368,40,juede,
353,condition1,4,juede_contrastive,17,觉得,juede,12518,41,juede,
353,condition1,4,juede_unclear,117,觉得,juede,24250,42,juede,
353,condition1,4,yiwei_contrastive,3,以为,yiwei,19850,43,yiwei,
353,condition1,4,filler,905,桃源,correct,14246,44,filler,
353,condition1,4,juede_unclear,115,以为,yiwei,15143,45,juede,
353,condition1,4,yiwei_unclear,104,以为,yiwei,15418,46,yiwei,
353,condition1,4,yiwei_contrastive,1,以为,yiwei,10552,47,yiwei,
353,condition1,4,yiwei_unclear,110,以为,yiwei,18999,48,yiwei,
353,condition1,4,filler,909,画蛇,correct,14059,49,filler,
353,condition1,4,juede_contrastive,12,觉得,juede,16286,50,juede,
322,condition1,practice,practice_1,301,lai,correct,,0,NA,
322,condition1,practice,practice_2,302,sunhuai,ambiguous,,0,NA,
322,condition1,practice,practice_3,303,ba,ambiguous,,0,NA,
322,condition1,practice,practice_4,304,qu,correct,,0,NA,
322,condition1,0,yiwei_unclear,101,以为,yiwei,57327,1,yiwei,
322,condition1,0,yiwei_unclear,102,以为,yiwei,25784,2,yiwei,
322,condition1,0,filler,910,作气,correct,14552,3,filler,
322,condition1,0,juede_contrastive,16,觉得,juede,15312,4,juede,
322,condition1,0,filler,901,以前,correct,9912,5,filler,
322,condition1,0,juede_unclear,112,觉得,juede,11289,6,juede,
322,condition1,0,yiwei_contrastive,4,以为,yiwei,36367,7,yiwei,
322,condition1,0,juede_unclear,119,觉得,juede,13224,8,juede,
322,condition1,0,yiwei_contrastive,1,以为,yiwei,11464,9,yiwei,
322,condition1,0,juede_contrastive,17,以为,yiwei,97729,10,juede,
322,condition1,1,juede_contrastive,13,觉得,juede,9632,11,juede,
322,condition1,1,yiwei_contrastive,5,觉得,juede,28967,12,yiwei,
322,condition1,1,juede_contrastive,19,觉得,juede,12720,13,juede,
322,condition1,1,yiwei_contrastive,10,以为,yiwei,6216,14,yiwei,
322,condition1,1,yiwei_unclear,106,以为,yiwei,48248,15,yiwei,
322,condition1,1,yiwei_unclear,105,以为,yiwei,15000,16,yiwei,
322,condition1,1,juede_unclear,115,觉得,juede,20489,17,juede,
322,condition1,1,filler,907,谈兵,correct,6231,18,filler,
322,condition1,1,filler,905,桃源,correct,3551,19,filler,
322,condition1,1,juede_unclear,113,觉得,juede,8392,20,juede,
322,condition1,2,juede_unclear,117,觉得,juede,24032,21,juede,
322,condition1,2,yiwei_contrastive,7,觉得,juede,40304,22,yiwei,
322,condition1,2,yiwei_unclear,103,以为,yiwei,17073,23,yiwei,
322,condition1,2,filler,904,以后,correct,11408,24,filler,
322,condition1,2,juede_unclear,111,觉得,juede,9327,25,juede,
322,condition1,2,juede_contrastive,14,觉得,juede,9065,26,juede,
322,condition1,2,juede_contrastive,11,觉得,juede,9888,27,juede,
322,condition1,2,yiwei_contrastive,2,以为,yiwei,16615,28,yiwei,
322,condition1,2,yiwei_unclear,110,以为,yiwei,38504,29,yiwei,
322,condition1,2,filler,903,以后,correct,5944,30,filler,
322,condition1,3,yiwei_unclear,107,以为,yiwei,15752,31,yiwei,
322,condition1,3,juede_unclear,116,觉得,juede,8984,32,juede,
322,condition1,3,filler,906,点睛,correct,4528,33,filler,
322,condition1,3,yiwei_contrastive,9,以为,yiwei,17408,34,yiwei,
322,condition1,3,yiwei_unclear,104,以为,yiwei,25208,35,yiwei,
322,condition1,3,juede_contrastive,12,觉得,juede,9745,36,juede,
322,condition1,3,juede_contrastive,15,觉得,juede,11368,37,juede,
322,condition1,3,juede_unclear,114,觉得,juede,20863,38,juede,
322,condition1,3,filler,908,拆桥,correct,5817,39,filler,
322,condition1,3,yiwei_contrastive,3,以为,yiwei,10071,40,yiwei,
322,condition1,4,juede_unclear,120,以为,yiwei,7889,41,juede,
322,condition1,4,juede_contrastive,18,以为,yiwei,12528,42,juede,
322,condition1,4,yiwei_contrastive,6,以为,yiwei,11807,43,yiwei,
322,condition1,4,juede_unclear,118,觉得,juede,23952,44,juede,
322,condition1,4,filler,909,画蛇,correct,6128,45,filler,
322,condition1,4,juede_contrastive,20,觉得,juede,10567,46,juede,
322,condition1,4,yiwei_unclear,109,以为,yiwei,15848,47,yiwei,
322,condition1,4,filler,902,以前,correct,4224,48,filler,
322,condition1,4,yiwei_contrastive,8,以为,yiwei,15159,49,yiwei,
322,condition1,4,yiwei_unclear,108,以为,yiwei,19695,50,yiwei,
314,condition1,practice,practice_1,301,lai,correct,,0,NA,
314,condition1,practice,practice_2,302,sunhuai,ambiguous,,0,NA,
314,condition1,practice,practice_3,303,ba,ambiguous,,0,NA,
314,condition1,practice,practice_4,304,qu,correct,,0,NA,
314,condition1,0,yiwei_unclear,103,以为,yiwei,28184,1,yiwei,
314,condition1,0,yiwei_contrastive,4,以为,yiwei,36096,2,yiwei,
314,condition1,0,juede_contrastive,17,觉得,juede,14503,3,juede,
314,condition1,0,yiwei_unclear,110,以为,yiwei,41958,4,yiwei,
314,condition1,0,juede_unclear,118,觉得,juede,33498,5,juede,
314,condition1,0,juede_unclear,113,觉得,juede,103213,6,juede,
314,condition1,0,filler,901,以前,correct,104170,7,filler,
314,condition1,0,juede_contrastive,19,觉得,juede,14673,8,juede,
314,condition1,0,yiwei_contrastive,3,以为,yiwei,259152,9,yiwei,
314,condition1,0,filler,904,以后,correct,21149,10,filler,
314,condition1,1,juede_contrastive,18,觉得,juede,34100,11,juede,
314,condition1,1,filler,905,桃源,correct,31961,12,filler,
314,condition1,1,yiwei_contrastive,10,以为,yiwei,14463,13,yiwei,
314,condition1,1,yiwei_unclear,108,以为,yiwei,31888,14,yiwei,
314,condition1,1,juede_unclear,117,觉得,juede,14563,15,juede,
314,condition1,1,filler,903,以后,correct,15178,16,filler,
314,condition1,1,yiwei_contrastive,2,以为,yiwei,12326,17,yiwei,
314,condition1,1,juede_contrastive,11,觉得,juede,9038,18,juede,
314,condition1,1,yiwei_unclear,102,觉得,juede,12352,19,yiwei,
314,condition1,1,juede_unclear,119,觉得,juede,30843,20,juede,
314,condition1,2,yiwei_unclear,104,觉得,juede,24375,21,yiwei,
314,condition1,2,yiwei_contrastive,1,以为,yiwei,36487,22,yiwei,
314,condition1,2,filler,909,画蛇,correct,8212,23,filler,
314,condition1,2,juede_contrastive,12,觉得,juede,13432,24,juede,
314,condition1,2,yiwei_contrastive,7,以为,yiwei,14065,25,yiwei,
314,condition1,2,yiwei_unclear,105,以为,yiwei,88937,26,yiwei,
314,condition1,2,juede_unclear,115,觉得,juede,12825,27,juede,
314,condition1,2,filler,907,谈兵,correct,4470,28,filler,
314,condition1,2,juede_unclear,111,觉得,juede,9794,29,juede,
314,condition1,2,juede_contrastive,20,觉得,juede,13189,30,juede,
314,condition1,3,juede_unclear,116,觉得,juede,12055,31,juede,
314,condition1,3,filler,906,点睛,correct,4397,32,filler,
314,condition1,3,juede_contrastive,14,觉得,juede,12078,33,juede,
314,condition1,3,yiwei_contrastive,8,以为,yiwei,13971,34,yiwei,
314,condition1,3,filler,910,作气,correct,3856,35,filler,
314,condition1,3,juede_contrastive,13,觉得,juede,9005,36,juede,
314,condition1,3,yiwei_unclear,101,以为,yiwei,7931,37,yiwei,
314,condition1,3,yiwei_unclear,106,以为,yiwei,14294,38,yiwei,
314,condition1,3,yiwei_contrastive,9,以为,yiwei,13458,39,yiwei,
314,condition1,3,juede_unclear,120,觉得,juede,11163,40,juede,
314,condition1,4,juede_unclear,112,觉得,juede,8772,41,juede,
314,condition1,4,filler,908,拆桥,correct,2908,42,filler,
314,condition1,4,juede_contrastive,15,觉得,juede,9747,43,juede,
314,condition1,4,yiwei_contrastive,6,以为,yiwei,4816,44,yiwei,
314,condition1,4,yiwei_contrastive,5,以为,yiwei,11138,45,yiwei,
314,condition1,4,yiwei_unclear,107,以为,yiwei,7826,46,yiwei,
314,condition1,4,yiwei_unclear,109,以为,yiwei,9549,47,yiwei,
314,condition1,4,juede_unclear,114,觉得,juede,11549,48,juede,
314,condition1,4,juede_contrastive,16,觉得,juede,10610,49,juede,
314,condition1,4,filler,902,以前,correct,9350,50,filler,
345,condition1,practice,practice_1,301,lai,correct,,0,NA,
345,condition1,practice,practice_2,302,pohuai,ambiguous,,0,NA,
345,condition1,practice,practice_3,303,ba,ambiguous,,0,NA,
345,condition1,practice,practice_4,304,qu,correct,,0,NA,
345,condition1,0,filler,905,桃源,correct,16719,1,filler,
345,condition1,0,filler,902,以前,correct,12931,2,filler,
345,condition1,0,yiwei_contrastive,2,以为,yiwei,22462,3,yiwei,
345,condition1,0,yiwei_unclear,106,觉得,juede,28710,4,yiwei,
345,condition1,0,juede_unclear,111,觉得,juede,17499,5,juede,
345,condition1,0,yiwei_contrastive,6,以为,yiwei,14806,6,yiwei,
345,condition1,0,juede_contrastive,14,觉得,juede,23921,7,juede,
345,condition1,0,juede_unclear,120,以为,yiwei,24300,8,juede,
345,condition1,0,yiwei_unclear,107,以为,yiwei,11538,9,yiwei,
345,condition1,0,juede_contrastive,15,觉得,juede,14888,10,juede,
345,condition1,1,juede_contrastive,16,觉得,juede,21589,11,juede,
345,condition1,1,juede_unclear,115,以为,yiwei,42579,12,juede,
345,condition1,1,yiwei_unclear,101,以为,yiwei,12572,13,yiwei,
345,condition1,1,juede_unclear,113,觉得,juede,25278,14,juede,
345,condition1,1,filler,903,以后,correct,22680,15,filler,
345,condition1,1,yiwei_contrastive,8,以为,yiwei,34002,16,yiwei,
345,condition1,1,yiwei_contrastive,7,以为,yiwei,15959,17,yiwei,
345,condition1,1,filler,901,以前,correct,16709,18,filler,
345,condition1,1,yiwei_unclear,103,以为,yiwei,12160,19,yiwei,
345,condition1,1,juede_contrastive,20,以为,yiwei,17365,20,juede,
345,condition1,2,yiwei_contrastive,9,以为,yiwei,56175,21,yiwei,
345,condition1,2,yiwei_unclear,110,觉得,juede,22053,22,yiwei,
345,condition1,2,juede_contrastive,17,以为,yiwei,12568,23,juede,
345,condition1,2,juede_contrastive,12,觉得,juede,13949,24,juede,
345,condition1,2,filler,907,谈兵,correct,13372,25,filler,
345,condition1,2,filler,909,画蛇,correct,11038,26,filler,
345,condition1,2,juede_unclear,117,以为,yiwei,37724,27,juede,
345,condition1,2,yiwei_contrastive,10,觉得,juede,16898,28,yiwei,
345,condition1,2,yiwei_unclear,102,觉得,juede,19365,29,yiwei,
345,condition1,2,juede_unclear,112,觉得,juede,17553,30,juede,
345,condition1,3,juede_contrastive,11,觉得,juede,19167,31,juede,
345,condition1,3,juede_contrastive,13,以为,yiwei,12533,32,juede,
345,condition1,3,filler,906,点睛,correct,19919,33,filler,
345,condition1,3,juede_unclear,114,觉得,juede,13598,34,juede,
345,condition1,3,yiwei_unclear,105,以为,yiwei,19604,35,yiwei,
345,condition1,3,yiwei_unclear,108,觉得,juede,21958,36,yiwei,
345,condition1,3,yiwei_contrastive,1,以为,yiwei,10633,37,yiwei,
345,condition1,3,yiwei_contrastive,5,觉得,juede,11585,38,yiwei,
345,condition1,3,juede_unclear,116,以为,yiwei,16986,39,juede,
345,condition1,3,filler,910,作气,correct,19571,40,filler,
345,condition1,4,juede_contrastive,18,觉得,juede,14140,41,juede,
345,condition1,4,juede_unclear,118,以为,yiwei,10784,42,juede,
345,condition1,4,yiwei_contrastive,4,以为,yiwei,18093,43,yiwei,
345,condition1,4,yiwei_unclear,104,以为,yiwei,19083,44,yiwei,
345,condition1,4,juede_contrastive,19,觉得,juede,15163,45,juede,
345,condition1,4,yiwei_unclear,109,以为,yiwei,11552,46,yiwei,
345,condition1,4,filler,908,拆桥,correct,7404,47,filler,
345,condition1,4,filler,904,以后,correct,13740,48,filler,
345,condition1,4,yiwei_contrastive,3,以为,yiwei,9778,49,yiwei,
345,condition1,4,juede_unclear,119,觉得,juede,16140,50,juede,
352,condition1,practice,practice_1,301,lai,correct,,0,NA,
352,condition1,practice,practice_2,302,pohuai,ambiguous,,0,NA,
352,condition1,practice,practice_3,303,ba,ambiguous,,0,NA,
352,condition1,practice,practice_4,304,qu,correct,,0,NA,
352,condition1,0,yiwei_contrastive,10,以为,yiwei,9148,1,yiwei,
352,condition1,0,yiwei_contrastive,6,以为,yiwei,11131,2,yiwei,
352,condition1,0,juede_unclear,120,觉得,juede,6563,3,juede,
352,condition1,0,filler,901,以前,correct,9149,4,filler,
352,condition1,0,juede_contrastive,11,觉得,juede,37779,5,juede,
352,condition1,0,yiwei_unclear,110,以为,yiwei,55847,6,yiwei,
352,condition1,0,filler,903,以后,correct,8995,7,filler,
352,condition1,0,yiwei_unclear,107,以为,yiwei,58693,8,yiwei,
352,condition1,0,juede_unclear,117,觉得,juede,19528,9,juede,
352,condition1,0,juede_contrastive,17,以为,yiwei,45577,10,juede,
352,condition1,1,yiwei_unclear,104,以为,yiwei,8981,11,yiwei,
352,condition1,1,juede_contrastive,16,觉得,juede,14898,12,juede,
352,condition1,1,yiwei_unclear,108,觉得,juede,19963,13,yiwei,
352,condition1,1,yiwei_contrastive,4,以为,yiwei,48744,14,yiwei,
352,condition1,1,filler,907,谈兵,correct,11011,15,filler,
352,condition1,1,yiwei_contrastive,5,以为,yiwei,29548,16,yiwei,
352,condition1,1,juede_contrastive,19,觉得,juede,32497,17,juede,
352,condition1,1,juede_unclear,119,觉得,juede,6431,18,juede,
352,condition1,1,filler,909,画蛇,correct,6283,19,filler,
352,condition1,1,juede_unclear,112,觉得,juede,8578,20,juede,
352,condition1,2,yiwei_contrastive,3,以为,yiwei,9718,21,yiwei,
352,condition1,2,juede_contrastive,15,觉得,juede,17668,22,juede,
352,condition1,2,filler,908,拆桥,correct,14676,23,filler,
352,condition1,2,juede_unclear,114,觉得,juede,12848,24,juede,
352,condition1,2,juede_unclear,116,觉得,juede,10118,25,juede,
352,condition1,2,yiwei_unclear,101,以为,yiwei,6146,26,yiwei,
352,condition1,2,juede_contrastive,14,觉得,juede,12982,27,juede,
352,condition1,2,yiwei_contrastive,8,以为,yiwei,15614,28,yiwei,
352,condition1,2,filler,910,作气,correct,3616,29,filler,
352,condition1,2,yiwei_unclear,102,觉得,juede,17864,30,yiwei,
352,condition1,3,juede_contrastive,18,觉得,juede,42443,31,juede,
352,condition1,3,filler,902,以前,correct,4600,32,filler,
352,condition1,3,yiwei_unclear,103,觉得,juede,14469,33,yiwei,
352,condition1,3,yiwei_unclear,109,以为,yiwei,8247,34,yiwei,
352,condition1,3,juede_contrastive,13,觉得,juede,7195,35,juede,
352,condition1,3,juede_unclear,115,觉得,juede,46139,36,juede,
352,condition1,3,yiwei_contrastive,9,以为,yiwei,8453,37,yiwei,
352,condition1,3,filler,904,以后,correct,4213,38,filler,
352,condition1,3,juede_unclear,118,觉得,juede,7070,39,juede,
352,condition1,3,yiwei_contrastive,2,以为,yiwei,5764,40,yiwei,
352,condition1,4,juede_unclear,111,觉得,juede,4113,41,juede,
352,condition1,4,filler,905,桃源,correct,3232,42,filler,
352,condition1,4,yiwei_contrastive,7,以为,yiwei,5167,43,yiwei,
352,condition1,4,yiwei_unclear,106,以为,yiwei,4634,44,yiwei,
352,condition1,4,yiwei_contrastive,1,以为,yiwei,5402,45,yiwei,
352,condition1,4,juede_unclear,113,觉得,juede,3313,46,juede,
352,condition1,4,filler,906,点睛,correct,2684,47,filler,
352,condition1,4,juede_contrastive,20,觉得,juede,4894,48,juede,
352,condition1,4,yiwei_unclear,105,以为,yiwei,14249,49,yiwei,
352,condition1,4,juede_contrastive,12,觉得,juede,3099,50,juede,
296,condition1,practice,practice_1,301,lai,correct,,0,NA,
296,condition1,practice,practice_2,302,pohuai,ambiguous,,0,NA,
296,condition1,practice,practice_3,303,ba,ambiguous,,0,NA,
296,condition1,practice,practice_4,304,qu,correct,,0,NA,
296,condition1,0,juede_contrastive,14,觉得,juede,22665,1,juede,
296,condition1,0,juede_unclear,120,觉得,juede,30013,2,juede,
296,condition1,0,yiwei_unclear,102,以为,yiwei,31454,3,yiwei,
296,condition1,0,yiwei_contrastive,10,以为,yiwei,12783,4,yiwei,
296,condition1,0,yiwei_contrastive,1,以为,yiwei,9536,5,yiwei,
296,condition1,0,juede_unclear,117,觉得,juede,28042,6,juede,
296,condition1,0,filler,909,画蛇,correct,12238,7,filler,
296,condition1,0,juede_contrastive,17,觉得,juede,13169,8,juede,
296,condition1,0,yiwei_unclear,107,以为,yiwei,9036,9,yiwei,
296,condition1,0,filler,908,拆桥,correct,11750,10,filler,
296,condition1,1,yiwei_contrastive,3,以为,yiwei,11321,11,yiwei,
296,condition1,1,yiwei_unclear,101,以为,yiwei,9370,12,yiwei,
296,condition1,1,juede_unclear,112,觉得,juede,12802,13,juede,
296,condition1,1,filler,903,以后,correct,7101,14,filler,
296,condition1,1,filler,901,以前,correct,10040,15,filler,
296,condition1,1,juede_contrastive,16,觉得,juede,12530,16,juede,
296,condition1,1,juede_contrastive,18,觉得,juede,10777,17,juede,
296,condition1,1,yiwei_unclear,108,觉得,juede,15168,18,yiwei,
296,condition1,1,juede_unclear,118,觉得,juede,10788,19,juede,
296,condition1,1,yiwei_contrastive,5,以为,yiwei,7895,20,yiwei,
296,condition1,2,yiwei_unclear,103,以为,yiwei,12049,21,yiwei,
296,condition1,2,juede_unclear,113,觉得,juede,9391,22,juede,
296,condition1,2,juede_unclear,115,觉得,juede,10787,23,juede,
296,condition1,2,filler,902,以前,correct,6422,24,filler,
296,condition1,2,yiwei_contrastive,8,以为,yiwei,16963,25,yiwei,
296,condition1,2,juede_contrastive,19,觉得,juede,21863,26,juede,
296,condition1,2,juede_contrastive,13,觉得,juede,8361,27,juede,
296,condition1,2,yiwei_contrastive,2,以为,yiwei,6136,28,yiwei,
296,condition1,2,yiwei_unclear,106,以为,yiwei,8975,29,yiwei,
296,condition1,2,filler,904,以后,correct,7405,30,filler,
296,condition1,3,filler,905,桃源,correct,3869,31,filler,
296,condition1,3,yiwei_contrastive,7,以为,yiwei,4767,32,yiwei,
296,condition1,3,juede_unclear,111,觉得,juede,8952,33,juede,
296,condition1,3,yiwei_unclear,110,以为,yiwei,21758,34,yiwei,
296,condition1,3,juede_contrastive,20,觉得,juede,7768,35,juede,
296,condition1,3,juede_contrastive,15,觉得,juede,15037,36,juede,
296,condition1,3,juede_unclear,114,觉得,juede,9703,37,juede,
296,condition1,3,yiwei_contrastive,6,以为,yiwei,5684,38,yiwei,
296,condition1,3,filler,906,点睛,correct,6192,39,filler,
296,condition1,3,yiwei_unclear,104,以为,yiwei,11137,40,yiwei,
296,condition1,4,yiwei_contrastive,9,以为,yiwei,24532,41,yiwei,
296,condition1,4,filler,910,作气,correct,6434,42,filler,
296,condition1,4,filler,907,谈兵,correct,7134,43,filler,
296,condition1,4,yiwei_unclear,105,以为,yiwei,15352,44,yiwei,
296,condition1,4,juede_unclear,119,觉得,juede,6913,45,juede,
296,condition1,4,juede_contrastive,11,觉得,juede,6830,46,juede,
296,condition1,4,yiwei_unclear,109,以为,yiwei,5850,47,yiwei,
296,condition1,4,juede_contrastive,12,觉得,juede,7093,48,juede,
296,condition1,4,juede_unclear,116,觉得,juede,6567,49,juede,
296,condition1,4,yiwei_contrastive,4,以为,yiwei,8448,50,yiwei,
349,condition1,practice,practice_1,301,lai,correct,,0,NA,
349,condition1,practice,practice_2,302,sunhuai,ambiguous,,0,NA,
349,condition1,practice,practice_3,303,ba,ambiguous,,0,NA,
349,condition1,practice,practice_4,304,qu,correct,,0,NA,
349,condition1,0,yiwei_unclear,109,以为,yiwei,10735,1,yiwei,
349,condition1,0,juede_unclear,120,以为,yiwei,3138,2,juede,
349,condition1,0,yiwei_contrastive,5,以为,yiwei,3662,3,yiwei,
349,condition1,0,filler,903,以后,correct,4082,4,filler,
349,condition1,0,yiwei_contrastive,9,以为,yiwei,5848,5,yiwei,
349,condition1,0,juede_unclear,116,觉得,juede,4920,6,juede,
349,condition1,0,yiwei_unclear,108,觉得,juede,5576,7,yiwei,
349,condition1,0,juede_contrastive,20,以为,yiwei,4326,8,juede,
349,condition1,0,juede_contrastive,17,以为,yiwei,3193,9,juede,
349,condition1,0,filler,907,谈兵,correct,3089,10,filler,
349,condition1,1,yiwei_contrastive,2,以为,yiwei,3895,11,yiwei,
349,condition1,1,filler,902,以前,correct,4296,12,filler,
349,condition1,1,filler,904,以后,correct,3680,13,filler,
349,condition1,1,juede_unclear,118,觉得,juede,3784,14,juede,
349,condition1,1,yiwei_unclear,102,以为,yiwei,3296,15,yiwei,
349,condition1,1,juede_unclear,114,觉得,juede,7176,16,juede,
349,condition1,1,juede_contrastive,11,觉得,juede,16560,17,juede,
349,condition1,1,yiwei_contrastive,7,以为,yiwei,4160,18,yiwei,
349,condition1,1,yiwei_unclear,106,以为,yiwei,29648,19,yiwei,
349,condition1,1,juede_contrastive,12,觉得,juede,3561,20,juede,
349,condition1,2,yiwei_contrastive,1,以为,yiwei,9811,21,yiwei,
349,condition1,2,juede_contrastive,18,觉得,juede,3934,22,juede,
349,condition1,2,juede_contrastive,15,以为,yiwei,3095,23,juede,
349,condition1,2,filler,906,点睛,correct,3952,24,filler,
349,condition1,2,juede_unclear,112,觉得,juede,4899,25,juede,
349,condition1,2,yiwei_unclear,104,以为,yiwei,6158,26,yiwei,
349,condition1,2,yiwei_unclear,107,以为,yiwei,4776,27,yiwei,
349,condition1,2,juede_unclear,111,觉得,juede,4391,28,juede,
349,condition1,2,yiwei_contrastive,4,以为,yiwei,3025,29,yiwei,
349,condition1,2,filler,909,画蛇,correct,3432,30,filler,
349,condition1,3,juede_contrastive,16,觉得,juede,2424,31,juede,
349,condition1,3,juede_unclear,117,以为,yiwei,6672,32,juede,
349,condition1,3,yiwei_contrastive,10,以为,yiwei,2921,33,yiwei,
349,condition1,3,juede_unclear,119,觉得,juede,3656,34,juede,
349,condition1,3,yiwei_contrastive,6,以为,yiwei,3183,35,yiwei,
349,condition1,3,yiwei_unclear,103,以为,yiwei,3825,36,yiwei,
349,condition1,3,juede_contrastive,19,觉得,juede,3672,37,juede,
349,condition1,3,filler,905,桃源,correct,3624,38,filler,
349,condition1,3,yiwei_unclear,105,以为,yiwei,3600,39,yiwei,
349,condition1,3,filler,901,以前,correct,5679,40,filler,
349,condition1,4,juede_unclear,113,以为,yiwei,2272,41,juede,
349,condition1,4,yiwei_contrastive,3,以为,yiwei,2834,42,yiwei,
349,condition1,4,yiwei_contrastive,8,觉得,juede,4214,43,yiwei,
349,condition1,4,juede_unclear,115,觉得,juede,9121,44,juede,
349,condition1,4,juede_contrastive,13,觉得,juede,7808,45,juede,
349,condition1,4,yiwei_unclear,101,以为,yiwei,2192,46,yiwei,
349,condition1,4,juede_contrastive,14,以为,yiwei,4424,47,juede,
349,condition1,4,filler,910,作气,correct,3160,48,filler,
349,condition1,4,yiwei_unclear,110,以为,yiwei,2257,49,yiwei,
349,condition1,4,filler,908,拆桥,correct,3655,50,filler,
333,condition1,practice,practice_1,301,lai,correct,,0,NA,
333,condition1,practice,practice_2,302,pohuai,ambiguous,,0,NA,
333,condition1,practice,practice_3,303,ba,ambiguous,,0,NA,
333,condition1,practice,practice_4,304,qu,correct,,0,NA,
333,condition1,0,juede_contrastive,16,觉得,juede,14274,1,juede,
333,condition1,0,yiwei_unclear,107,以为,yiwei,15845,2,yiwei,
333,condition1,0,yiwei_contrastive,9,以为,yiwei,55036,3,yiwei,
333,condition1,0,juede_unclear,119,觉得,juede,31877,4,juede,
333,condition1,0,yiwei_contrastive,3,以为,yiwei,10079,5,yiwei,
333,condition1,0,juede_unclear,116,觉得,juede,22146,6,juede,
333,condition1,0,juede_contrastive,11,觉得,juede,10639,7,juede,
333,condition1,0,yiwei_unclear,109,以为,yiwei,8658,8,yiwei,
333,condition1,0,filler,901,以前,correct,11891,9,filler,
333,condition1,0,filler,903,以后,correct,9430,10,filler,
333,condition1,1,juede_contrastive,18,以为,yiwei,13671,11,juede,
333,condition1,1,yiwei_contrastive,6,以为,yiwei,67781,12,yiwei,
333,condition1,1,yiwei_contrastive,8,觉得,juede,16662,13,yiwei,
333,condition1,1,filler,907,谈兵,correct,11926,14,filler,
333,condition1,1,filler,904,以后,correct,11935,15,filler,
333,condition1,1,yiwei_unclear,101,以为,yiwei,11502,16,yiwei,
333,condition1,1,juede_contrastive,14,觉得,juede,9648,17,juede,
333,condition1,1,juede_unclear,112,觉得,juede,11739,18,juede,
333,condition1,1,yiwei_unclear,110,觉得,juede,11583,19,yiwei,
333,condition1,1,juede_unclear,114,觉得,juede,24275,20,juede,
333,condition1,2,filler,909,画蛇,correct,10063,21,filler,
333,condition1,2,yiwei_unclear,105,以为,yiwei,13935,22,yiwei,
333,condition1,2,juede_unclear,113,觉得,juede,6408,23,juede,
333,condition1,2,yiwei_contrastive,1,觉得,juede,8264,24,yiwei,
333,condition1,2,yiwei_unclear,106,以为,yiwei,21357,25,yiwei,
333,condition1,2,juede_contrastive,13,觉得,juede,11419,26,juede,
333,condition1,2,juede_contrastive,17,觉得,juede,11109,27,juede,
333,condition1,2,juede_unclear,115,觉得,juede,12958,28,juede,
333,condition1,2,yiwei_contrastive,4,以为,yiwei,10777,29,yiwei,
333,condition1,2,filler,908,拆桥,correct,23053,30,filler,
333,condition1,3,filler,906,点睛,correct,45721,31,filler,
333,condition1,3,juede_unclear,117,觉得,juede,9582,32,juede,
333,condition1,3,yiwei_unclear,103,以为,yiwei,11534,33,yiwei,
333,condition1,3,juede_contrastive,19,觉得,juede,11048,34,juede,
333,condition1,3,filler,905,桃源,correct,24739,35,filler,
333,condition1,3,juede_contrastive,12,觉得,juede,15688,36,juede,
333,condition1,3,yiwei_contrastive,5,以为,yiwei,6824,37,yiwei,
333,condition1,3,yiwei_contrastive,10,以为,yiwei,6760,38,yiwei,
333,condition1,3,yiwei_unclear,108,觉得,juede,14869,39,yiwei,
333,condition1,3,juede_unclear,111,觉得,juede,7255,40,juede,
333,condition1,4,juede_contrastive,20,觉得,juede,17111,41,juede,
333,condition1,4,yiwei_unclear,102,以为,yiwei,10455,42,yiwei,
333,condition1,4,filler,910,作气,correct,10398,43,filler,
333,condition1,4,juede_contrastive,15,觉得,juede,8612,44,juede,
333,condition1,4,juede_unclear,118,觉得,juede,33924,45,juede,
333,condition1,4,yiwei_unclear,104,觉得,juede,34081,46,yiwei,
333,condition1,4,yiwei_contrastive,7,以为,yiwei,8053,47,yiwei,
333,condition1,4,filler,902,以前,correct,7818,48,filler,
333,condition1,4,yiwei_contrastive,2,以为,yiwei,6078,49,yiwei,
333,condition1,4,juede_unclear,120,觉得,juede,10906,50,juede,
328,condition1,practice,practice_1,301,lai,correct,,0,NA,
328,condition1,practice,practice_2,302,pohuai,ambiguous,,0,NA,
328,condition1,practice,practice_3,303,ba,ambiguous,,0,NA,
328,condition1,practice,practice_4,304,qu,correct,,0,NA,
328,condition1,0,juede_contrastive,16,觉得,juede,30417,1,juede,
328,condition1,0,juede_contrastive,11,觉得,juede,14842,2,juede,
328,condition1,0,yiwei_contrastive,6,以为,yiwei,55875,3,yiwei,
328,condition1,0,filler,906,点睛,correct,14917,4,filler,
328,condition1,0,yiwei_unclear,110,以为,yiwei,27412,5,yiwei,
328,condition1,0,filler,910,作气,correct,11445,6,filler,
328,condition1,0,juede_unclear,117,以为,yiwei,25440,7,juede,
328,condition1,0,juede_unclear,111,觉得,juede,10767,8,juede,
328,condition1,0,yiwei_unclear,104,以为,yiwei,86837,9,yiwei,
328,condition1,0,yiwei_contrastive,10,以为,yiwei,9276,10,yiwei,
328,condition1,1,juede_unclear,115,觉得,juede,17853,11,juede,
328,condition1,1,juede_contrastive,19,觉得,juede,5528,12,juede,
328,condition1,1,yiwei_contrastive,7,觉得,juede,46231,13,yiwei,
328,condition1,1,juede_contrastive,17,觉得,juede,19750,14,juede,
328,condition1,1,juede_unclear,113,觉得,juede,11634,15,juede,
328,condition1,1,filler,908,拆桥,correct,11089,16,filler,
328,condition1,1,yiwei_unclear,101,以为,yiwei,10249,17,yiwei,
328,condition1,1,yiwei_contrastive,4,以为,yiwei,9633,18,yiwei,
328,condition1,1,yiwei_unclear,109,以为,yiwei,268663,19,yiwei,
328,condition1,1,filler,904,以后,correct,7916,20,filler,
328,condition1,2,yiwei_unclear,102,以为,yiwei,19577,21,yiwei,
328,condition1,2,juede_unclear,112,觉得,juede,15335,22,juede,
328,condition1,2,juede_unclear,118,觉得,juede,19026,23,juede,
328,condition1,2,juede_contrastive,20,觉得,juede,26944,24,juede,
328,condition1,2,filler,902,以前,correct,7001,25,filler,
328,condition1,2,juede_contrastive,14,觉得,juede,11049,26,juede,
328,condition1,2,filler,907,谈兵,correct,3663,27,filler,
328,condition1,2,yiwei_contrastive,8,以为,yiwei,56344,28,yiwei,
328,condition1,2,yiwei_contrastive,2,以为,yiwei,9631,29,yiwei,
328,condition1,2,yiwei_unclear,107,以为,yiwei,6962,30,yiwei,
328,condition1,3,yiwei_unclear,108,觉得,juede,15040,31,yiwei,
328,condition1,3,juede_unclear,116,觉得,juede,8736,32,juede,
328,condition1,3,yiwei_contrastive,3,以为,yiwei,11537,33,yiwei,
328,condition1,3,juede_contrastive,12,觉得,juede,11072,34,juede,
328,condition1,3,yiwei_contrastive,1,以为,yiwei,12416,35,yiwei,
328,condition1,3,filler,903,以后,correct,13220,36,filler,
328,condition1,3,yiwei_unclear,105,以为,yiwei,19536,37,yiwei,
328,condition1,3,juede_unclear,114,觉得,juede,18735,38,juede,
328,condition1,3,filler,909,画蛇,correct,6906,39,filler,
328,condition1,3,juede_contrastive,13,以为,yiwei,17766,40,juede,
328,condition1,4,yiwei_unclear,103,以为,yiwei,11176,41,yiwei,
328,condition1,4,juede_unclear,120,觉得,juede,8602,42,juede,
328,condition1,4,filler,905,桃源,correct,7656,43,filler,
328,condition1,4,juede_contrastive,18,觉得,juede,11535,44,juede,
328,condition1,4,juede_contrastive,15,觉得,juede,19155,45,juede,
328,condition1,4,juede_unclear,119,觉得,juede,5562,46,juede,
328,condition1,4,yiwei_contrastive,5,以为,yiwei,5604,47,yiwei,
328,condition1,4,yiwei_unclear,106,以为,yiwei,14772,48,yiwei,
328,condition1,4,filler,901,以前,correct,9576,49,filler,
328,condition1,4,yiwei_contrastive,9,以为,yiwei,11594,50,yiwei,
320,condition1,practice,practice_1,301,lai,correct,,0,NA,
320,condition1,practice,practice_2,302,pohuai,ambiguous,,0,NA,
320,condition1,practice,practice_3,303,ba,ambiguous,,0,NA,
320,condition1,practice,practice_4,304,lai,incorrect,,0,NA,
320,condition1,0,filler,908,拆桥,correct,10059,1,filler,
320,condition1,0,juede_unclear,112,觉得,juede,10665,2,juede,
320,condition1,0,juede_unclear,111,觉得,juede,9684,3,juede,
320,condition1,0,juede_contrastive,19,觉得,juede,10659,4,juede,
320,condition1,0,yiwei_contrastive,9,以为,yiwei,22411,5,yiwei,
320,condition1,0,juede_contrastive,12,觉得,juede,8992,6,juede,
320,condition1,0,filler,906,点睛,correct,4553,7,filler,
320,condition1,0,yiwei_unclear,101,以为,yiwei,7074,8,yiwei,
320,condition1,0,yiwei_unclear,109,以为,yiwei,10039,9,yiwei,
320,condition1,0,yiwei_contrastive,10,以为,yiwei,11029,10,yiwei,
320,condition1,1,filler,903,以后,correct,4083,11,filler,
320,condition1,1,juede_unclear,120,觉得,juede,9295,12,juede,
320,condition1,1,juede_contrastive,11,觉得,juede,6835,13,juede,
320,condition1,1,juede_unclear,113,觉得,juede,5317,14,juede,
320,condition1,1,filler,910,作气,correct,4741,15,filler,
320,condition1,1,yiwei_contrastive,2,以为,yiwei,5184,16,yiwei,
320,condition1,1,yiwei_contrastive,5,以为,yiwei,4340,17,yiwei,
320,condition1,1,yiwei_unclear,102,以为,yiwei,12353,18,yiwei,
320,condition1,1,yiwei_unclear,104,以为,yiwei,5937,19,yiwei,
320,condition1,1,juede_contrastive,18,以为,yiwei,7247,20,juede,
320,condition1,2,filler,904,以后,correct,5895,21,filler,
320,condition1,2,yiwei_contrastive,6,以为,yiwei,7250,22,yiwei,
320,condition1,2,filler,905,桃源,correct,3648,23,filler,
320,condition1,2,juede_contrastive,20,觉得,juede,6394,24,juede,
320,condition1,2,juede_unclear,119,觉得,juede,3789,25,juede,
320,condition1,2,yiwei_unclear,106,以为,yiwei,6186,26,yiwei,
320,condition1,2,juede_contrastive,16,觉得,juede,5873,27,juede,
320,condition1,2,yiwei_contrastive,3,以为,yiwei,4676,28,yiwei,
320,condition1,2,juede_unclear,114,觉得,juede,4420,29,juede,
320,condition1,2,yiwei_unclear,107,以为,yiwei,4201,30,yiwei,
320,condition1,3,yiwei_unclear,103,以为,yiwei,5557,31,yiwei,
320,condition1,3,juede_contrastive,13,觉得,juede,9576,32,juede,
320,condition1,3,filler,907,谈兵,correct,3323,33,filler,
320,condition1,3,juede_unclear,117,觉得,juede,10052,34,juede,
320,condition1,3,yiwei_unclear,105,以为,yiwei,4032,35,yiwei,
320,condition1,3,yiwei_contrastive,1,以为,yiwei,5355,36,yiwei,
320,condition1,3,filler,902,以前,correct,2426,37,filler,
320,condition1,3,yiwei_contrastive,7,以为,yiwei,8331,38,yiwei,
320,condition1,3,juede_unclear,118,觉得,juede,5303,39,juede,
320,condition1,3,juede_contrastive,15,觉得,juede,4451,40,juede,
320,condition1,4,juede_unclear,115,觉得,juede,6232,41,juede,
320,condition1,4,filler,901,以前,correct,2816,42,filler,
320,condition1,4,juede_contrastive,14,觉得,juede,3701,43,juede,
320,condition1,4,yiwei_contrastive,4,以为,yiwei,12427,44,yiwei,
320,condition1,4,juede_contrastive,17,觉得,juede,8038,45,juede,
320,condition1,4,yiwei_contrastive,8,以为,yiwei,6978,46,yiwei,
320,condition1,4,juede_unclear,116,觉得,juede,4180,47,juede,
320,condition1,4,filler,909,画蛇,correct,2765,48,filler,
320,condition1,4,yiwei_unclear,110,以为,yiwei,8651,49,yiwei,
320,condition1,4,yiwei_unclear,108,觉得,juede,2080,50,yiwei,
347,condition1,practice,practice_1,301,lai,correct,,0,NA,
347,condition1,practice,practice_2,302,pohuai,ambiguous,,0,NA,
347,condition1,practice,practice_3,303,ba,ambiguous,,0,NA,
347,condition1,practice,practice_4,304,qu,correct,,0,NA,
347,condition1,0,yiwei_unclear,107,以为,yiwei,14695,1,yiwei,
347,condition1,0,yiwei_contrastive,5,以为,yiwei,19131,2,yiwei,
347,condition1,0,yiwei_unclear,101,以为,yiwei,12895,3,yiwei,
347,condition1,0,filler,907,谈兵,correct,4821,4,filler,
347,condition1,0,juede_unclear,114,觉得,juede,11259,5,juede,
347,condition1,0,juede_contrastive,11,觉得,juede,7222,6,juede,
347,condition1,0,yiwei_contrastive,7,以为,yiwei,14278,7,yiwei,
347,condition1,0,juede_contrastive,20,觉得,juede,13682,8,juede,
347,condition1,0,juede_unclear,119,觉得,juede,8236,9,juede,
347,condition1,0,filler,908,拆桥,correct,10459,10,filler,
347,condition1,1,yiwei_unclear,103,以为,yiwei,8123,11,yiwei,
347,condition1,1,juede_unclear,111,觉得,juede,5591,12,juede,
347,condition1,1,yiwei_contrastive,4,以为,yiwei,10239,13,yiwei,
347,condition1,1,filler,909,画蛇,correct,5622,14,filler,
347,condition1,1,yiwei_contrastive,2,以为,yiwei,8126,15,yiwei,
347,condition1,1,juede_contrastive,14,以为,yiwei,7638,16,juede,
347,condition1,1,juede_unclear,115,觉得,juede,21432,17,juede,
347,condition1,1,yiwei_unclear,105,以为,yiwei,6422,18,yiwei,
347,condition1,1,juede_contrastive,12,觉得,juede,4107,19,juede,
347,condition1,1,filler,903,以后,correct,5701,20,filler,
347,condition1,2,juede_unclear,120,觉得,juede,4187,21,juede,
347,condition1,2,juede_contrastive,15,觉得,juede,9324,22,juede,
347,condition1,2,yiwei_contrastive,6,以为,yiwei,5825,23,yiwei,
347,condition1,2,juede_contrastive,16,觉得,juede,14042,24,juede,
347,condition1,2,yiwei_unclear,102,以为,yiwei,12094,25,yiwei,
347,condition1,2,yiwei_contrastive,3,以为,yiwei,9206,26,yiwei,
347,condition1,2,yiwei_unclear,110,以为,yiwei,10609,27,yiwei,
347,condition1,2,juede_unclear,116,觉得,juede,9141,28,juede,
347,condition1,2,filler,901,以前,correct,6756,29,filler,
347,condition1,2,filler,904,以后,correct,5738,30,filler,
347,condition1,3,juede_contrastive,13,以为,yiwei,10008,31,juede,
347,condition1,3,juede_unclear,117,以为,yiwei,6739,32,juede,
347,condition1,3,juede_unclear,118,觉得,juede,4321,33,juede,
347,condition1,3,yiwei_unclear,108,以为,yiwei,13493,34,yiwei,
347,condition1,3,filler,910,作气,correct,5155,35,filler,
347,condition1,3,yiwei_unclear,106,以为,yiwei,5921,36,yiwei,
347,condition1,3,juede_contrastive,17,以为,yiwei,19105,37,juede,
347,condition1,3,yiwei_contrastive,10,觉得,juede,4084,38,yiwei,
347,condition1,3,yiwei_contrastive,1,以为,yiwei,6486,39,yiwei,
347,condition1,3,filler,905,桃源,correct,3803,40,filler,
347,condition1,4,filler,902,以前,correct,6105,41,filler,
347,condition1,4,filler,906,点睛,correct,2519,42,filler,
347,condition1,4,yiwei_unclear,104,以为,yiwei,8640,43,yiwei,
347,condition1,4,juede_contrastive,19,觉得,juede,6055,44,juede,
347,condition1,4,juede_unclear,112,觉得,juede,8974,45,juede,
347,condition1,4,juede_unclear,113,觉得,juede,3403,46,juede,
347,condition1,4,juede_contrastive,18,以为,yiwei,11576,47,juede,
347,condition1,4,yiwei_unclear,109,以为,yiwei,3821,48,yiwei,
347,condition1,4,yiwei_contrastive,8,以为,yiwei,6054,49,yiwei,
347,condition1,4,yiwei_contrastive,9,以为,yiwei,9666,50,yiwei,
344,condition1,practice,practice_1,301,lai,correct,,0,NA,
344,condition1,practice,practice_2,302,pohuai,ambiguous,,0,NA,
344,condition1,practice,practice_3,303,jiang,ambiguous,,0,NA,
344,condition1,practice,practice_4,304,qu,correct,,0,NA,
344,condition1,0,yiwei_unclear,105,以为,yiwei,17023,1,yiwei,
344,condition1,0,juede_unclear,114,觉得,juede,14944,2,juede,
344,condition1,0,yiwei_contrastive,1,以为,yiwei,13824,3,yiwei,
344,condition1,0,juede_contrastive,16,觉得,juede,13696,4,juede,
344,condition1,0,yiwei_contrastive,4,以为,yiwei,11568,5,yiwei,
344,condition1,0,filler,902,以前,correct,6520,6,filler,
344,condition1,0,juede_unclear,116,觉得,juede,8208,7,juede,
344,condition1,0,juede_contrastive,19,觉得,juede,7696,8,juede,
344,condition1,0,filler,906,点睛,correct,10536,9,filler,
344,condition1,0,yiwei_unclear,106,觉得,juede,11602,10,yiwei,
344,condition1,1,juede_unclear,119,觉得,juede,6926,11,juede,
344,condition1,1,yiwei_unclear,104,以为,yiwei,7976,12,yiwei,
344,condition1,1,filler,903,以后,correct,8112,13,filler,
344,condition1,1,yiwei_contrastive,9,以为,yiwei,24528,14,yiwei,
344,condition1,1,yiwei_contrastive,6,以为,yiwei,8440,15,yiwei,
344,condition1,1,juede_contrastive,14,觉得,juede,7728,16,juede,
344,condition1,1,yiwei_unclear,108,以为,yiwei,14240,17,yiwei,
344,condition1,1,filler,904,以后,correct,8464,18,filler,
344,condition1,1,juede_unclear,113,觉得,juede,10200,19,juede,
344,condition1,1,juede_contrastive,13,以为,yiwei,7625,20,juede,
344,condition1,2,juede_unclear,111,觉得,juede,6215,21,juede,
344,condition1,2,juede_unclear,112,觉得,juede,11384,22,juede,
344,condition1,2,filler,907,谈兵,correct,7464,23,filler,
344,condition1,2,yiwei_contrastive,5,以为,yiwei,6720,24,yiwei,
344,condition1,2,yiwei_contrastive,2,以为,yiwei,9488,25,yiwei,
344,condition1,2,yiwei_unclear,110,以为,yiwei,11608,26,yiwei,
344,condition1,2,juede_contrastive,12,觉得,juede,6808,27,juede,
344,condition1,2,juede_contrastive,18,觉得,juede,5568,28,juede,
344,condition1,2,filler,910,作气,correct,4720,29,filler,
344,condition1,2,yiwei_unclear,101,以为,yiwei,6488,30,yiwei,
344,condition1,3,juede_unclear,120,觉得,juede,4392,31,juede,
344,condition1,3,juede_unclear,117,觉得,juede,3936,32,juede,
344,condition1,3,juede_contrastive,17,觉得,juede,8864,33,juede,
344,condition1,3,yiwei_unclear,103,以为,yiwei,4384,34,yiwei,
344,condition1,3,yiwei_contrastive,8,觉得,juede,8880,35,yiwei,
344,condition1,3,yiwei_contrastive,10,以为,yiwei,8104,36,yiwei,
344,condition1,3,filler,908,拆桥,correct,5904,37,filler,
344,condition1,3,juede_contrastive,11,觉得,juede,9056,38,juede,
344,condition1,3,yiwei_unclear,109,以为,yiwei,9176,39,yiwei,
344,condition1,3,filler,905,桃源,correct,3952,40,filler,
344,condition1,4,filler,901,以前,correct,4360,41,filler,
344,condition1,4,yiwei_contrastive,3,以为,yiwei,7048,42,yiwei,
344,condition1,4,yiwei_contrastive,7,以为,yiwei,6272,43,yiwei,
344,condition1,4,juede_unclear,115,觉得,juede,5016,44,juede,
344,condition1,4,juede_contrastive,20,觉得,juede,8136,45,juede,
344,condition1,4,juede_contrastive,15,觉得,juede,10840,46,juede,
344,condition1,4,juede_unclear,118,觉得,juede,6784,47,juede,
344,condition1,4,filler,909,画蛇,correct,8600,48,filler,
344,condition1,4,yiwei_unclear,102,觉得,juede,7208,49,yiwei,
344,condition1,4,yiwei_unclear,107,以为,yiwei,5272,50,yiwei,
360,condition1,practice,practice_1,301,lai,correct,,0,NA,
360,condition1,practice,practice_2,302,sunhuai,ambiguous,,0,NA,
360,condition1,practice,practice_3,303,ba,ambiguous,,0,NA,
360,condition1,practice,practice_4,304,qu,correct,,0,NA,
360,condition1,0,filler,901,以前,correct,13039,1,filler,
360,condition1,0,yiwei_contrastive,4,以为,yiwei,30677,2,yiwei,
360,condition1,0,yiwei_contrastive,8,以为,yiwei,57297,3,yiwei,
360,condition1,0,yiwei_unclear,104,以为,yiwei,23152,4,yiwei,
360,condition1,0,juede_contrastive,15,觉得,juede,34126,5,juede,
360,condition1,0,juede_unclear,112,觉得,juede,13538,6,juede,
360,condition1,0,juede_unclear,113,以为,yiwei,16718,7,juede,
360,condition1,0,yiwei_unclear,105,觉得,juede,11209,8,yiwei,
360,condition1,0,filler,906,点睛,correct,12343,9,filler,
360,condition1,0,juede_contrastive,12,觉得,juede,12096,10,juede,
360,condition1,1,yiwei_unclear,106,以为,yiwei,14961,11,yiwei,
360,condition1,1,yiwei_contrastive,10,以为,yiwei,10312,12,yiwei,
360,condition1,1,filler,902,以前,correct,8047,13,filler,
360,condition1,1,juede_contrastive,20,以为,yiwei,26775,14,juede,
360,condition1,1,juede_unclear,115,觉得,juede,11681,15,juede,
360,condition1,1,yiwei_contrastive,9,以为,yiwei,22281,16,yiwei,
360,condition1,1,filler,910,作气,correct,12078,17,filler,
360,condition1,1,juede_unclear,119,觉得,juede,11623,18,juede,
360,condition1,1,juede_contrastive,11,觉得,juede,11376,19,juede,
360,condition1,1,yiwei_unclear,110,以为,yiwei,16968,20,yiwei,
360,condition1,2,filler,905,桃源,correct,15384,21,filler,
360,condition1,2,juede_unclear,111,觉得,juede,8448,22,juede,
360,condition1,2,yiwei_unclear,102,以为,yiwei,14073,23,yiwei,
360,condition1,2,yiwei_unclear,101,以为,yiwei,10231,24,yiwei,
360,condition1,2,yiwei_contrastive,7,以为,yiwei,9223,25,yiwei,
360,condition1,2,filler,907,谈兵,correct,10624,26,filler,
360,condition1,2,juede_contrastive,17,以为,yiwei,9104,27,juede,
360,condition1,2,yiwei_contrastive,6,以为,yiwei,13105,28,yiwei,
360,condition1,2,juede_contrastive,18,以为,yiwei,11823,29,juede,
360,condition1,2,juede_unclear,118,觉得,juede,11384,30,juede,
360,condition1,3,yiwei_unclear,107,以为,yiwei,9825,31,yiwei,
360,condition1,3,juede_contrastive,16,觉得,juede,8518,32,juede,
360,condition1,3,filler,903,以后,correct,11913,33,filler,
360,condition1,3,juede_contrastive,13,以为,yiwei,23896,34,juede,
360,condition1,3,yiwei_contrastive,2,以为,yiwei,12352,35,yiwei,
360,condition1,3,filler,909,画蛇,correct,10263,36,filler,
360,condition1,3,juede_unclear,117,以为,yiwei,22911,37,juede,
360,condition1,3,yiwei_unclear,109,以为,yiwei,7473,38,yiwei,
360,condition1,3,yiwei_contrastive,5,以为,yiwei,7295,39,yiwei,
360,condition1,3,juede_unclear,120,以为,yiwei,12177,40,juede,
360,condition1,4,yiwei_unclear,103,以为,yiwei,12505,41,yiwei,
360,condition1,4,juede_contrastive,14,觉得,juede,9216,42,juede,
360,condition1,4,filler,908,拆桥,correct,11158,43,filler,
360,condition1,4,filler,904,以后,correct,8707,44,filler,
360,condition1,4,juede_contrastive,19,觉得,juede,8583,45,juede,
360,condition1,4,yiwei_contrastive,1,以为,yiwei,8568,46,yiwei,
360,condition1,4,yiwei_contrastive,3,以为,yiwei,11088,47,yiwei,
360,condition1,4,yiwei_unclear,108,觉得,juede,10055,48,yiwei,
360,condition1,4,juede_unclear,114,觉得,juede,10088,49,juede,
360,condition1,4,juede_unclear,116,觉得,juede,17657,50,juede,
332,condition1,practice,practice_1,301,lai,correct,,0,NA,
332,condition1,practice,practice_2,302,pohuai,ambiguous,,0,NA,
332,condition1,practice,practice_3,303,ba,ambiguous,,0,NA,
332,condition1,practice,practice_4,304,qu,correct,,0,NA,
332,condition1,0,yiwei_unclear,110,以为,yiwei,49941,1,yiwei,
332,condition1,0,yiwei_contrastive,6,以为,yiwei,18340,2,yiwei,
332,condition1,0,juede_unclear,114,觉得,juede,17637,3,juede,
332,condition1,0,juede_contrastive,20,觉得,juede,23808,4,juede,
332,condition1,0,juede_unclear,111,觉得,juede,14553,5,juede,
332,condition1,0,yiwei_contrastive,4,以为,yiwei,26017,6,yiwei,
332,condition1,0,filler,906,加眼,incorrect,46059,7,filler,
332,condition1,0,filler,902,以前,correct,14102,8,filler,
332,condition1,0,yiwei_unclear,108,以为,yiwei,35577,9,yiwei,
332,condition1,0,juede_contrastive,16,觉得,juede,23302,10,juede,
332,condition1,1,juede_unclear,120,觉得,juede,18088,11,juede,
332,condition1,1,filler,907,谈兵,correct,19154,12,filler,
332,condition1,1,juede_contrastive,12,觉得,juede,14669,13,juede,
332,condition1,1,yiwei_contrastive,9,以为,yiwei,34485,14,yiwei,
332,condition1,1,juede_unclear,112,觉得,juede,23208,15,juede,
332,condition1,1,filler,903,以后,correct,20684,16,filler,
332,condition1,1,yiwei_contrastive,10,以为,yiwei,14002,17,yiwei,
332,condition1,1,yiwei_unclear,102,觉得,juede,25385,18,yiwei,
332,condition1,1,yiwei_unclear,103,以为,yiwei,28840,19,yiwei,
332,condition1,1,juede_contrastive,19,觉得,juede,17620,20,juede,
332,condition1,2,juede_contrastive,14,觉得,juede,19820,21,juede,
332,condition1,2,filler,908,拆桥,correct,16903,22,filler,
332,condition1,2,juede_unclear,116,以为,yiwei,51882,23,juede,
332,condition1,2,juede_contrastive,18,觉得,juede,16213,24,juede,
332,condition1,2,yiwei_contrastive,7,以为,yiwei,21087,25,yiwei,
332,condition1,2,yiwei_unclear,109,觉得,juede,41356,26,yiwei,
332,condition1,2,filler,905,桃源,correct,15820,27,filler,
332,condition1,2,yiwei_unclear,106,以为,yiwei,39403,28,yiwei,
332,condition1,2,yiwei_contrastive,2,以为,yiwei,23295,29,yiwei,
332,condition1,2,juede_unclear,118,觉得,juede,28622,30,juede,
332,condition1,3,juede_contrastive,17,觉得,juede,19136,31,juede,
332,condition1,3,yiwei_contrastive,3,以为,yiwei,26955,32,yiwei,
332,condition1,3,yiwei_unclear,107,以为,yiwei,20604,33,yiwei,
332,condition1,3,juede_unclear,113,觉得,juede,26538,34,juede,
332,condition1,3,filler,904,以后,correct,18091,35,filler,
332,condition1,3,filler,909,画龙,incorrect,21203,36,filler,
332,condition1,3,yiwei_unclear,104,以为,yiwei,21503,37,yiwei,
332,condition1,3,juede_unclear,117,以为,yiwei,26805,38,juede,
332,condition1,3,juede_contrastive,11,觉得,juede,18168,39,juede,
332,condition1,3,yiwei_contrastive,8,以为,yiwei,47318,40,yiwei,
332,condition1,4,yiwei_contrastive,1,以为,yiwei,32794,41,yiwei,
332,condition1,4,yiwei_contrastive,5,以为,yiwei,30555,42,yiwei,
332,condition1,4,juede_unclear,119,觉得,juede,18253,43,juede,
332,condition1,4,yiwei_unclear,105,以为,yiwei,31472,44,yiwei,
332,condition1,4,yiwei_unclear,101,觉得,juede,31956,45,yiwei,
332,condition1,4,filler,910,作气,correct,26563,46,filler,
332,condition1,4,juede_contrastive,13,觉得,juede,16069,47,juede,
332,condition1,4,juede_unclear,115,觉得,juede,22954,48,juede,
332,condition1,4,juede_contrastive,15,觉得,juede,15302,49,juede,
332,condition1,4,filler,901,以前,correct,17624,50,filler,
289,condition1,practice,practice_1,301,lai,correct,,0,NA,
289,condition1,practice,practice_2,302,sunhuai,ambiguous,,0,NA,
289,condition1,practice,practice_3,303,ba,ambiguous,,0,NA,
289,condition1,practice,practice_4,304,lai,incorrect,,0,NA,
289,condition1,0,yiwei_contrastive,10,以为,yiwei,20402,1,yiwei,
289,condition1,0,juede_contrastive,19,觉得,juede,15556,2,juede,
289,condition1,0,yiwei_unclear,104,觉得,juede,14102,3,yiwei,
289,condition1,0,juede_unclear,115,觉得,juede,86312,4,juede,
289,condition1,0,yiwei_contrastive,7,以为,yiwei,14083,5,yiwei,
289,condition1,0,yiwei_unclear,109,以为,yiwei,14350,6,yiwei,
289,condition1,0,filler,905,桃源,correct,10868,7,filler,
289,condition1,0,juede_unclear,112,觉得,juede,17215,8,juede,
289,condition1,0,juede_contrastive,20,觉得,juede,16516,9,juede,
289,condition1,0,filler,902,以前,correct,9417,10,filler,
289,condition1,1,juede_contrastive,17,觉得,juede,6984,11,juede,
289,condition1,1,juede_contrastive,15,觉得,juede,10318,12,juede,
289,condition1,1,yiwei_contrastive,4,觉得,juede,12169,13,yiwei,
289,condition1,1,filler,907,谈兵,correct,8584,14,filler,
289,condition1,1,juede_unclear,120,觉得,juede,132067,15,juede,
289,condition1,1,yiwei_unclear,101,以为,yiwei,9681,16,yiwei,
289,condition1,1,juede_unclear,119,觉得,juede,9768,17,juede,
289,condition1,1,filler,906,点睛,correct,8334,18,filler,
289,condition1,1,yiwei_contrastive,3,以为,yiwei,9068,19,yiwei,
289,condition1,1,yiwei_unclear,102,觉得,juede,14415,20,yiwei,
289,condition1,2,yiwei_contrastive,2,以为,yiwei,9318,21,yiwei,
289,condition1,2,filler,908,拆桥,correct,11068,22,filler,
289,condition1,2,juede_unclear,118,觉得,juede,12118,23,juede,
289,condition1,2,yiwei_unclear,103,以为,yiwei,7084,24,yiwei,
289,condition1,2,yiwei_contrastive,6,觉得,juede,6551,25,yiwei,
289,condition1,2,yiwei_unclear,110,以为,yiwei,10069,26,yiwei,
289,condition1,2,juede_unclear,111,觉得,juede,10118,27,juede,
289,condition1,2,juede_contrastive,11,觉得,juede,7667,28,juede,
289,condition1,2,filler,901,以前,correct,11364,29,filler,
289,condition1,2,juede_contrastive,14,觉得,juede,10060,30,juede,
289,condition1,3,filler,904,以后,correct,13656,31,filler,
289,condition1,3,juede_unclear,117,觉得,juede,11784,32,juede,
289,condition1,3,filler,910,作气,correct,5034,33,filler,
289,condition1,3,juede_contrastive,16,觉得,juede,8618,34,juede,
289,condition1,3,yiwei_contrastive,9,以为,yiwei,17877,35,yiwei,
289,condition1,3,juede_unclear,116,觉得,juede,15220,36,juede,
289,condition1,3,yiwei_unclear,108,觉得,juede,16052,37,yiwei,
289,condition1,3,yiwei_unclear,105,以为,yiwei,8685,38,yiwei,
289,condition1,3,juede_contrastive,13,觉得,juede,7368,39,juede,
289,condition1,3,yiwei_contrastive,1,觉得,juede,9701,40,yiwei,
289,condition1,4,yiwei_contrastive,5,以为,yiwei,6851,41,yiwei,
289,condition1,4,yiwei_unclear,107,以为,yiwei,15457,42,yiwei,
289,condition1,4,yiwei_contrastive,8,以为,yiwei,12427,43,yiwei,
289,condition1,4,filler,903,以后,correct,7234,44,filler,
289,condition1,4,filler,909,画蛇,correct,5518,45,filler,
289,condition1,4,juede_contrastive,12,觉得,juede,27195,46,juede,
289,condition1,4,juede_contrastive,18,觉得,juede,291199,47,juede,
289,condition1,4,yiwei_unclear,106,觉得,juede,18993,48,yiwei,
289,condition1,4,juede_unclear,114,觉得,juede,10003,49,juede,
289,condition1,4,juede_unclear,113,觉得,juede,8367,50,juede,
312,condition1,practice,practice_1,301,lai,correct,,0,NA,
312,condition1,practice,practice_2,302,sunhuai,ambiguous,,0,NA,
312,condition1,practice,practice_3,303,ba,ambiguous,,0,NA,
312,condition1,practice,practice_4,304,qu,correct,,0,NA,
312,condition1,0,yiwei_contrastive,9,以为,yiwei,32443,1,yiwei,
312,condition1,0,juede_unclear,111,觉得,juede,14696,2,juede,
312,condition1,0,juede_contrastive,15,以为,yiwei,32301,3,juede,
312,condition1,0,filler,902,以前,correct,10504,4,filler,
312,condition1,0,juede_unclear,115,觉得,juede,14714,5,juede,
312,condition1,0,yiwei_unclear,102,以为,yiwei,33060,6,yiwei,
312,condition1,0,filler,904,以后,correct,13897,7,filler,
312,condition1,0,yiwei_contrastive,8,以为,yiwei,54438,8,yiwei,
312,condition1,0,yiwei_unclear,109,以为,yiwei,10577,9,yiwei,
312,condition1,0,juede_contrastive,20,以为,yiwei,8785,10,juede,
312,condition1,1,juede_contrastive,16,觉得,juede,15106,11,juede,
312,condition1,1,juede_contrastive,12,觉得,juede,7879,12,juede,
312,condition1,1,juede_unclear,116,觉得,juede,17417,13,juede,
312,condition1,1,filler,905,桃源,correct,4760,14,filler,
312,condition1,1,yiwei_unclear,106,以为,yiwei,13442,15,yiwei,
312,condition1,1,yiwei_unclear,104,以为,yiwei,17321,16,yiwei,
312,condition1,1,filler,907,谈兵,correct,4401,17,filler,
312,condition1,1,yiwei_contrastive,4,以为,yiwei,27634,18,yiwei,
312,condition1,1,yiwei_contrastive,10,以为,yiwei,12089,19,yiwei,
312,condition1,1,juede_unclear,118,觉得,juede,12545,20,juede,
312,condition1,2,yiwei_contrastive,7,以为,yiwei,11809,21,yiwei,
312,condition1,2,juede_contrastive,11,觉得,juede,24282,22,juede,
312,condition1,2,filler,906,点睛,correct,5047,23,filler,
312,condition1,2,yiwei_contrastive,3,以为,yiwei,9921,24,yiwei,
312,condition1,2,juede_unclear,117,以为,yiwei,10482,25,juede,
312,condition1,2,yiwei_unclear,103,以为,yiwei,12409,26,yiwei,
312,condition1,2,filler,909,画蛇,correct,5864,27,filler,
312,condition1,2,yiwei_unclear,101,以为,yiwei,8137,28,yiwei,
312,condition1,2,juede_contrastive,18,以为,yiwei,17451,29,juede,
312,condition1,2,juede_unclear,112,觉得,juede,16801,30,juede,
312,condition1,3,yiwei_unclear,107,以为,yiwei,15290,31,yiwei,
312,condition1,3,yiwei_contrastive,5,以为,yiwei,24899,32,yiwei,
312,condition1,3,juede_unclear,114,觉得,juede,26089,33,juede,
312,condition1,3,juede_contrastive,13,以为,yiwei,10210,34,juede,
312,condition1,3,juede_contrastive,19,以为,yiwei,11713,35,juede,
312,condition1,3,yiwei_contrastive,1,以为,yiwei,10040,36,yiwei,
312,condition1,3,filler,901,以前,correct,10626,37,filler,
312,condition1,3,juede_unclear,119,觉得,juede,8201,38,juede,
312,condition1,3,filler,903,以后,correct,7018,39,filler,
312,condition1,3,yiwei_unclear,108,觉得,juede,27675,40,yiwei,
312,condition1,4,juede_contrastive,14,觉得,juede,18001,41,juede,
312,condition1,4,juede_contrastive,17,以为,yiwei,10329,42,juede,
312,condition1,4,juede_unclear,120,觉得,juede,39836,43,juede,
312,condition1,4,filler,910,作气,correct,9993,44,filler,
312,condition1,4,filler,908,拆桥,correct,4368,45,filler,
312,condition1,4,juede_unclear,113,觉得,juede,14064,46,juede,
312,condition1,4,yiwei_contrastive,6,以为,yiwei,11017,47,yiwei,
312,condition1,4,yiwei_unclear,105,以为,yiwei,15986,48,yiwei,
312,condition1,4,yiwei_unclear,110,以为,yiwei,15826,49,yiwei,
312,condition1,4,yiwei_contrastive,2,以为,yiwei,11113,50,yiwei,
350,condition1,practice,practice_1,301,lai,correct,,0,NA,
350,condition1,practice,practice_2,302,sunhuai,ambiguous,,0,NA,
350,condition1,practice,practice_3,303,ba,ambiguous,,0,NA,
350,condition1,practice,practice_4,304,qu,correct,,0,NA,
350,condition1,0,juede_contrastive,16,觉得,juede,41985,1,juede,
350,condition1,0,yiwei_contrastive,7,以为,yiwei,43814,2,yiwei,
350,condition1,0,yiwei_unclear,101,以为,yiwei,25995,3,yiwei,
350,condition1,0,filler,904,以后,correct,22287,4,filler,
350,condition1,0,filler,907,谈兵,correct,16139,5,filler,
350,condition1,0,juede_unclear,118,觉得,juede,33069,6,juede,
350,condition1,0,yiwei_unclear,110,以为,yiwei,32955,7,yiwei,
350,condition1,0,yiwei_contrastive,8,以为,yiwei,29681,8,yiwei,
350,condition1,0,juede_unclear,117,觉得,juede,33123,9,juede,
350,condition1,0,juede_contrastive,17,觉得,juede,21352,10,juede,
350,condition1,1,juede_contrastive,11,觉得,juede,15281,11,juede,
350,condition1,1,yiwei_unclear,102,觉得,juede,11135,12,yiwei,
350,condition1,1,juede_unclear,120,觉得,juede,22504,13,juede,
350,condition1,1,yiwei_unclear,109,以为,yiwei,15365,14,yiwei,
350,condition1,1,filler,905,桃源,correct,11050,15,filler,
350,condition1,1,yiwei_contrastive,3,觉得,juede,18128,16,yiwei,
350,condition1,1,juede_unclear,112,觉得,juede,18393,17,juede,
350,condition1,1,yiwei_contrastive,5,以为,yiwei,17376,18,yiwei,
350,condition1,1,filler,906,点睛,correct,17702,19,filler,
350,condition1,1,juede_contrastive,15,觉得,juede,22690,20,juede,
350,condition1,2,juede_contrastive,12,觉得,juede,11351,21,juede,
350,condition1,2,yiwei_unclear,105,以为,yiwei,24646,22,yiwei,
350,condition1,2,yiwei_contrastive,9,以为,yiwei,41454,23,yiwei,
350,condition1,2,yiwei_unclear,104,以为,yiwei,23109,24,yiwei,
350,condition1,2,filler,901,以前,correct,11520,25,filler,
350,condition1,2,filler,902,以前,correct,8194,26,filler,
350,condition1,2,juede_unclear,115,觉得,juede,49945,27,juede,
350,condition1,2,juede_contrastive,13,觉得,juede,10783,28,juede,
350,condition1,2,yiwei_contrastive,1,以为,yiwei,18611,29,yiwei,
350,condition1,2,juede_unclear,111,觉得,juede,6036,30,juede,
350,condition1,3,yiwei_unclear,103,以为,yiwei,12574,31,yiwei,
350,condition1,3,juede_unclear,114,觉得,juede,15535,32,juede,
350,condition1,3,filler,909,画蛇,correct,11303,33,filler,
350,condition1,3,juede_contrastive,20,觉得,juede,20801,34,juede,
350,condition1,3,yiwei_unclear,106,以为,yiwei,12564,35,yiwei,
350,condition1,3,juede_contrastive,18,觉得,juede,19290,36,juede,
350,condition1,3,juede_unclear,113,觉得,juede,13777,37,juede,
350,condition1,3,yiwei_contrastive,6,以为,yiwei,20231,38,yiwei,
350,condition1,3,filler,908,拆桥,correct,20839,39,filler,
350,condition1,3,yiwei_contrastive,2,以为,yiwei,22953,40,yiwei,
350,condition1,4,juede_contrastive,14,觉得,juede,12289,41,juede,
350,condition1,4,juede_contrastive,19,觉得,juede,18376,42,juede,
350,condition1,4,yiwei_contrastive,4,以为,yiwei,44889,43,yiwei,
350,condition1,4,juede_unclear,116,觉得,juede,16795,44,juede,
350,condition1,4,filler,903,以后,correct,11621,45,filler,
350,condition1,4,yiwei_unclear,107,以为,yiwei,11871,46,yiwei,
350,condition1,4,yiwei_contrastive,10,以为,yiwei,10835,47,yiwei,
350,condition1,4,juede_unclear,119,觉得,juede,11873,48,juede,
350,condition1,4,filler,910,作气,correct,32910,49,filler,
350,condition1,4,yiwei_unclear,108,觉得,juede,20400,50,yiwei,
356,condition1,practice,practice_1,301,lai,correct,,0,NA,
356,condition1,practice,practice_2,302,pohuai,ambiguous,,0,NA,
356,condition1,practice,practice_3,303,ba,ambiguous,,0,NA,
356,condition1,practice,practice_4,304,lai,incorrect,,0,NA,
356,condition1,0,juede_contrastive,19,觉得,juede,8380,1,juede,
356,condition1,0,filler,901,以前,correct,8814,2,filler,
356,condition1,0,juede_unclear,116,以为,yiwei,128187,3,juede,
356,condition1,0,yiwei_contrastive,10,以为,yiwei,6715,4,yiwei,
356,condition1,0,juede_unclear,111,觉得,juede,7327,5,juede,
356,condition1,0,yiwei_contrastive,6,以为,yiwei,5635,6,yiwei,
356,condition1,0,juede_contrastive,14,觉得,juede,7357,7,juede,
356,condition1,0,yiwei_unclear,104,以为,yiwei,6924,8,yiwei,
356,condition1,0,yiwei_unclear,101,以为,yiwei,7261,9,yiwei,
356,condition1,0,filler,902,以前,correct,5892,10,filler,
356,condition1,1,filler,905,桃源,correct,5646,11,filler,
356,condition1,1,juede_unclear,113,觉得,juede,10248,12,juede,
356,condition1,1,yiwei_unclear,110,以为,yiwei,16181,13,yiwei,
356,condition1,1,juede_contrastive,16,觉得,juede,174927,14,juede,
356,condition1,1,yiwei_contrastive,2,以为,yiwei,29002,15,yiwei,
356,condition1,1,yiwei_unclear,103,以为,yiwei,14104,16,yiwei,
356,condition1,1,yiwei_contrastive,8,觉得,juede,12705,17,yiwei,
356,condition1,1,juede_contrastive,17,觉得,juede,15770,18,juede,
356,condition1,1,juede_unclear,119,觉得,juede,12131,19,juede,
356,condition1,1,filler,909,画蛇,correct,5746,20,filler,
356,condition1,2,juede_unclear,115,以为,yiwei,3717,21,juede,
356,condition1,2,filler,910,作气,correct,7044,22,filler,
356,condition1,2,yiwei_unclear,108,觉得,juede,7021,23,yiwei,
356,condition1,2,juede_contrastive,13,以为,yiwei,11339,24,juede,
356,condition1,2,yiwei_contrastive,7,以为,yiwei,10415,25,yiwei,
356,condition1,2,filler,907,谈兵,correct,18757,26,filler,
356,condition1,2,yiwei_contrastive,9,以为,yiwei,7914,27,yiwei,
356,condition1,2,juede_unclear,114,觉得,juede,4221,28,juede,
356,condition1,2,yiwei_unclear,102,觉得,juede,11941,29,yiwei,
356,condition1,2,juede_contrastive,12,觉得,juede,3571,30,juede,
356,condition1,3,juede_unclear,120,以为,yiwei,5249,31,juede,
356,condition1,3,yiwei_contrastive,3,以为,yiwei,6458,32,yiwei,
356,condition1,3,yiwei_unclear,106,觉得,juede,8734,33,yiwei,
356,condition1,3,yiwei_unclear,109,觉得,juede,9300,34,yiwei,
356,condition1,3,juede_contrastive,11,觉得,juede,29283,35,juede,
356,condition1,3,juede_contrastive,20,觉得,juede,12713,36,juede,
356,condition1,3,filler,908,拆桥,correct,6359,37,filler,
356,condition1,3,filler,903,以后,correct,9654,38,filler,
356,condition1,3,yiwei_contrastive,5,以为,yiwei,19470,39,yiwei,
356,condition1,3,juede_unclear,112,觉得,juede,34225,40,juede,
356,condition1,4,yiwei_unclear,105,以为,yiwei,2552,41,yiwei,
356,condition1,4,juede_contrastive,15,觉得,juede,14477,42,juede,
356,condition1,4,filler,906,点睛,correct,3863,43,filler,
356,condition1,4,juede_unclear,118,觉得,juede,4200,44,juede,
356,condition1,4,yiwei_contrastive,1,以为,yiwei,3975,45,yiwei,
356,condition1,4,juede_unclear,117,觉得,juede,4479,46,juede,
356,condition1,4,juede_contrastive,18,以为,yiwei,5025,47,juede,
356,condition1,4,yiwei_unclear,107,觉得,juede,3171,48,yiwei,
356,condition1,4,filler,904,以后,correct,7258,49,filler,
356,condition1,4,yiwei_contrastive,4,以为,yiwei,13317,50,yiwei,
299,condition1,practice,practice_1,301,lai,correct,,0,NA,
299,condition1,practice,practice_2,302,sunhuai,ambiguous,,0,NA,
299,condition1,practice,practice_3,303,ba,ambiguous,,0,NA,
299,condition1,practice,practice_4,304,qu,correct,,0,NA,
299,condition1,0,yiwei_unclear,110,以为,yiwei,31219,1,yiwei,
299,condition1,0,juede_unclear,118,觉得,juede,9403,2,juede,
299,condition1,0,yiwei_unclear,108,以为,yiwei,19861,3,yiwei,
299,condition1,0,yiwei_contrastive,5,以为,yiwei,13268,4,yiwei,
299,condition1,0,filler,909,画蛇,correct,8951,5,filler,
299,condition1,0,juede_contrastive,13,觉得,juede,19445,6,juede,
299,condition1,0,filler,906,点睛,correct,8353,7,filler,
299,condition1,0,juede_contrastive,17,觉得,juede,14358,8,juede,
299,condition1,0,juede_unclear,114,觉得,juede,11775,9,juede,
299,condition1,0,yiwei_contrastive,6,以为,yiwei,11642,10,yiwei,
299,condition1,1,juede_unclear,115,觉得,juede,10791,11,juede,
299,condition1,1,yiwei_unclear,104,以为,yiwei,11967,12,yiwei,
299,condition1,1,filler,905,桃源,correct,7123,13,filler,
299,condition1,1,yiwei_contrastive,9,以为,yiwei,26576,14,yiwei,
299,condition1,1,yiwei_contrastive,10,以为,yiwei,24326,15,yiwei,
299,condition1,1,juede_contrastive,15,觉得,juede,16034,16,juede,
299,condition1,1,juede_unclear,120,觉得,juede,9466,17,juede,
299,condition1,1,yiwei_unclear,102,觉得,juede,16749,18,yiwei,
299,condition1,1,filler,904,以后,correct,12166,19,filler,
299,condition1,1,juede_contrastive,11,觉得,juede,10075,20,juede,
299,condition1,2,filler,903,以后,correct,17033,21,filler,
299,condition1,2,yiwei_contrastive,1,以为,yiwei,11459,22,yiwei,
299,condition1,2,yiwei_unclear,109,以为,yiwei,13466,23,yiwei,
299,condition1,2,yiwei_contrastive,2,以为,yiwei,16216,24,yiwei,
299,condition1,2,juede_contrastive,19,觉得,juede,10058,25,juede,
299,condition1,2,filler,907,谈兵,correct,6315,26,filler,
299,condition1,2,yiwei_unclear,105,以为,yiwei,11402,27,yiwei,
299,condition1,2,juede_unclear,116,觉得,juede,12317,28,juede,
299,condition1,2,juede_unclear,117,觉得,juede,12164,29,juede,
299,condition1,2,juede_contrastive,14,觉得,juede,25311,30,juede,
299,condition1,3,juede_unclear,119,觉得,juede,13851,31,juede,
299,condition1,3,juede_contrastive,18,觉得,juede,9448,32,juede,
299,condition1,3,yiwei_contrastive,8,以为,yiwei,21147,33,yiwei,
299,condition1,3,yiwei_contrastive,3,以为,yiwei,9177,34,yiwei,
299,condition1,3,yiwei_unclear,101,以为,yiwei,20520,35,yiwei,
299,condition1,3,juede_unclear,111,觉得,juede,7413,36,juede,
299,condition1,3,juede_contrastive,12,觉得,juede,7602,37,juede,
299,condition1,3,filler,902,以前,correct,5764,38,filler,
299,condition1,3,yiwei_unclear,103,以为,yiwei,9219,39,yiwei,
299,condition1,3,filler,910,作气,correct,4340,40,filler,
299,condition1,4,filler,901,以前,correct,8299,41,filler,
299,condition1,4,yiwei_contrastive,4,以为,yiwei,14431,42,yiwei,
299,condition1,4,juede_contrastive,16,觉得,juede,9271,43,juede,
299,condition1,4,yiwei_contrastive,7,以为,yiwei,27481,44,yiwei,
299,condition1,4,yiwei_unclear,106,以为,yiwei,9534,45,yiwei,
299,condition1,4,filler,908,拆桥,correct,5743,46,filler,
299,condition1,4,juede_unclear,113,觉得,juede,7585,47,juede,
299,condition1,4,juede_contrastive,20,觉得,juede,13271,48,juede,
299,condition1,4,yiwei_unclear,107,以为,yiwei,15470,49,yiwei,
299,condition1,4,juede_unclear,112,觉得,juede,10924,50,juede,
303,condition1,practice,practice_1,301,lai,correct,,0,NA,
303,condition1,practice,practice_2,302,pohuai,ambiguous,,0,NA,
303,condition1,practice,practice_3,303,ba,ambiguous,,0,NA,
303,condition1,practice,practice_4,304,qu,correct,,0,NA,
303,condition1,0,yiwei_unclear,106,以为,yiwei,18433,1,yiwei,
303,condition1,0,filler,904,以后,correct,51477,2,filler,
303,condition1,0,juede_unclear,114,觉得,juede,20223,3,juede,
303,condition1,0,yiwei_unclear,104,以为,yiwei,22230,4,yiwei,
303,condition1,0,juede_unclear,119,觉得,juede,18026,5,juede,
303,condition1,0,yiwei_contrastive,7,觉得,juede,11087,6,yiwei,
303,condition1,0,yiwei_contrastive,5,以为,yiwei,11906,7,yiwei,
303,condition1,0,filler,906,点睛,correct,25141,8,filler,
303,condition1,0,juede_contrastive,13,觉得,juede,27009,9,juede,
303,condition1,0,juede_contrastive,15,以为,yiwei,26612,10,juede,
303,condition1,1,yiwei_contrastive,10,以为,yiwei,12907,11,yiwei,
303,condition1,1,yiwei_unclear,101,以为,yiwei,14536,12,yiwei,
303,condition1,1,juede_unclear,111,觉得,juede,11771,13,juede,
303,condition1,1,filler,902,以前,correct,9838,14,filler,
303,condition1,1,juede_contrastive,12,觉得,juede,9752,15,juede,
303,condition1,1,yiwei_unclear,107,以为,yiwei,7435,16,yiwei,
303,condition1,1,juede_unclear,118,觉得,juede,12022,17,juede,
303,condition1,1,filler,903,以后,correct,7023,18,filler,
303,condition1,1,juede_contrastive,18,以为,yiwei,15835,19,juede,
303,condition1,1,yiwei_contrastive,8,以为,yiwei,29817,20,yiwei,
303,condition1,2,yiwei_contrastive,9,以为,yiwei,29666,21,yiwei,
303,condition1,2,juede_unclear,120,以为,yiwei,11842,22,juede,
303,condition1,2,filler,907,谈兵,correct,3853,23,filler,
303,condition1,2,yiwei_unclear,102,以为,yiwei,32497,24,yiwei,
303,condition1,2,juede_unclear,113,觉得,juede,8890,25,juede,
303,condition1,2,yiwei_contrastive,3,以为,yiwei,11125,26,yiwei,
303,condition1,2,juede_contrastive,14,觉得,juede,28201,27,juede,
303,condition1,2,yiwei_unclear,110,以为,yiwei,12258,28,yiwei,
303,condition1,2,juede_contrastive,17,觉得,juede,20425,29,juede,
303,condition1,2,filler,905,桃源,correct,5827,30,filler,
303,condition1,3,filler,908,拆桥,correct,8144,31,filler,
303,condition1,3,juede_unclear,115,觉得,juede,10997,32,juede,
303,condition1,3,juede_unclear,112,觉得,juede,12433,33,juede,
303,condition1,3,yiwei_unclear,108,觉得,juede,14716,34,yiwei,
303,condition1,3,yiwei_unclear,105,以为,yiwei,21455,35,yiwei,
303,condition1,3,yiwei_contrastive,2,以为,yiwei,143541,36,yiwei,
303,condition1,3,juede_contrastive,16,觉得,juede,10320,37,juede,
303,condition1,3,filler,910,作气,correct,7623,38,filler,
303,condition1,3,yiwei_contrastive,6,以为,yiwei,42178,39,yiwei,
303,condition1,3,juede_contrastive,11,觉得,juede,6497,40,juede,
303,condition1,4,juede_unclear,117,觉得,juede,10960,41,juede,
303,condition1,4,juede_contrastive,20,觉得,juede,28781,42,juede,
303,condition1,4,filler,901,以前,correct,4795,43,filler,
303,condition1,4,juede_contrastive,19,觉得,juede,8673,44,juede,
303,condition1,4,yiwei_contrastive,4,以为,yiwei,5771,45,yiwei,
303,condition1,4,yiwei_unclear,103,以为,yiwei,13305,46,yiwei,
303,condition1,4,filler,909,画蛇,correct,6573,47,filler,
303,condition1,4,yiwei_unclear,109,以为,yiwei,94212,48,yiwei,
303,condition1,4,juede_unclear,116,觉得,juede,12840,49,juede,
303,condition1,4,yiwei_contrastive,1,以为,yiwei,6812,50,yiwei,
290,condition1,practice,practice_1,301,lai,correct,,0,NA,
290,condition1,practice,practice_2,302,pohuai,ambiguous,,0,NA,
290,condition1,practice,practice_3,303,ba,ambiguous,,0,NA,
290,condition1,practice,practice_4,304,qu,correct,,0,NA,
290,condition1,0,juede_unclear,120,觉得,juede,29148,1,juede,
290,condition1,0,juede_unclear,112,觉得,juede,9844,2,juede,
290,condition1,0,yiwei_contrastive,5,以为,yiwei,16085,3,yiwei,
290,condition1,0,juede_contrastive,13,觉得,juede,15063,4,juede,
290,condition1,0,filler,909,画蛇,correct,8607,5,filler,
290,condition1,0,filler,906,点睛,correct,9387,6,filler,
290,condition1,0,yiwei_unclear,104,以为,yiwei,7448,7,yiwei,
290,condition1,0,yiwei_contrastive,3,以为,yiwei,8816,8,yiwei,
290,condition1,0,juede_contrastive,11,觉得,juede,8840,9,juede,
290,condition1,0,yiwei_unclear,102,觉得,juede,18427,10,yiwei,
290,condition1,1,juede_contrastive,20,觉得,juede,141247,11,juede,
290,condition1,1,juede_unclear,116,觉得,juede,8339,12,juede,
290,condition1,1,juede_contrastive,19,觉得,juede,6382,13,juede,
290,condition1,1,yiwei_contrastive,6,以为,yiwei,5578,14,yiwei,
290,condition1,1,juede_unclear,111,觉得,juede,6854,15,juede,
290,condition1,1,yiwei_contrastive,2,以为,yiwei,5725,16,yiwei,
290,condition1,1,yiwei_unclear,105,以为,yiwei,12540,17,yiwei,
290,condition1,1,filler,903,以后,correct,10253,18,filler,
290,condition1,1,filler,908,拆桥,correct,5663,19,filler,
290,condition1,1,yiwei_unclear,110,以为,yiwei,8754,20,yiwei,
290,condition1,2,juede_unclear,113,觉得,juede,7764,21,juede,
290,condition1,2,yiwei_unclear,108,觉得,juede,17616,22,yiwei,
290,condition1,2,filler,902,以前,correct,33923,23,filler,
290,condition1,2,yiwei_contrastive,7,以为,yiwei,7292,24,yiwei,
290,condition1,2,filler,905,桃源,correct,4816,25,filler,
290,condition1,2,yiwei_contrastive,1,以为,yiwei,5940,26,yiwei,
290,condition1,2,juede_contrastive,16,觉得,juede,11096,27,juede,
290,condition1,2,yiwei_unclear,107,以为,yiwei,5815,28,yiwei,
290,condition1,2,juede_contrastive,15,觉得,juede,8630,29,juede,
290,condition1,2,juede_unclear,114,觉得,juede,9129,30,juede,
290,condition1,3,yiwei_contrastive,8,以为,yiwei,21184,31,yiwei,
290,condition1,3,juede_contrastive,17,觉得,juede,12811,32,juede,
290,condition1,3,filler,907,谈兵,correct,7734,33,filler,
290,condition1,3,yiwei_contrastive,9,以为,yiwei,98358,34,yiwei,
290,condition1,3,yiwei_unclear,101,以为,yiwei,9239,35,yiwei,
290,condition1,3,juede_unclear,115,觉得,juede,8325,36,juede,
290,condition1,3,filler,901,以前,correct,5190,37,filler,
290,condition1,3,juede_unclear,118,觉得,juede,40790,38,juede,
290,condition1,3,yiwei_unclear,109,以为,yiwei,39572,39,yiwei,
290,condition1,3,juede_contrastive,18,以为,yiwei,7500,40,juede,
290,condition1,4,juede_contrastive,12,觉得,juede,7498,41,juede,
290,condition1,4,yiwei_contrastive,10,以为,yiwei,38084,42,yiwei,
290,condition1,4,yiwei_unclear,103,以为,yiwei,5185,43,yiwei,
290,condition1,4,filler,904,以后,correct,12457,44,filler,
290,condition1,4,yiwei_unclear,106,以为,yiwei,63518,45,yiwei,
290,condition1,4,juede_unclear,117,觉得,juede,8964,46,juede,
290,condition1,4,juede_contrastive,14,觉得,juede,307467,47,juede,
290,condition1,4,yiwei_contrastive,4,以为,yiwei,6094,48,yiwei,
290,condition1,4,juede_unclear,119,觉得,juede,4911,49,juede,
290,condition1,4,filler,910,作气,correct,5564,50,filler,
309,condition1,practice,practice_1,301,lai,correct,,0,NA,
309,condition1,practice,practice_2,302,sunhuai,ambiguous,,0,NA,
309,condition1,practice,practice_3,303,ba,ambiguous,,0,NA,
309,condition1,practice,practice_4,304,qu,correct,,0,NA,
309,condition1,0,juede_unclear,120,觉得,juede,24921,1,juede,
309,condition1,0,yiwei_unclear,110,以为,yiwei,25155,2,yiwei,
309,condition1,0,juede_contrastive,14,觉得,juede,21839,3,juede,
309,condition1,0,yiwei_contrastive,7,以为,yiwei,16690,4,yiwei,
309,condition1,0,filler,906,点睛,correct,17641,5,filler,
309,condition1,0,yiwei_unclear,108,觉得,juede,22042,6,yiwei,
309,condition1,0,juede_contrastive,12,觉得,juede,7739,7,juede,
309,condition1,0,yiwei_contrastive,10,以为,yiwei,10597,8,yiwei,
309,condition1,0,juede_unclear,115,觉得,juede,17659,9,juede,
309,condition1,0,filler,901,以前,correct,8804,10,filler,
309,condition1,1,juede_unclear,117,觉得,juede,12202,11,juede,
309,condition1,1,filler,905,桃源,correct,6473,12,filler,
309,condition1,1,yiwei_contrastive,8,觉得,juede,11533,13,yiwei,
309,condition1,1,yiwei_unclear,103,以为,yiwei,16726,14,yiwei,
309,condition1,1,filler,908,拆桥,correct,14608,15,filler,
309,condition1,1,yiwei_unclear,104,以为,yiwei,8901,16,yiwei,
309,condition1,1,juede_contrastive,11,觉得,juede,13194,17,juede,
309,condition1,1,juede_contrastive,15,觉得,juede,48059,18,juede,
309,condition1,1,juede_unclear,118,觉得,juede,3660,19,juede,
309,condition1,1,yiwei_contrastive,2,以为,yiwei,5176,20,yiwei,
309,condition1,2,filler,910,作气,correct,4766,21,filler,
309,condition1,2,juede_unclear,113,觉得,juede,4240,22,juede,
