workerid,proliferate.condition,block_id,condition,item_id,response,rt,trial_num,verb,error
452,condition1,practice,practice_1,301,放,,0,NA,
452,condition1,practice,practice_2,302,打,,0,NA,
452,condition1,practice,practice_3,303,发,,0,NA,
452,condition1,practice,practice_4,304,闹,,0,NA,
452,condition1,0,juede_unclear,114,看,19878,1,juede,
452,condition1,0,filler,903,待,3444,2,filler,
452,condition1,0,yiwei_contrastive,9,要,15941,3,yiwei,
452,condition1,0,yiwei_unclear,103,是,19264,4,yiwei,
452,condition1,0,juede_unclear,111,觉得,7560,5,juede,
452,condition1,0,juede_contrastive,15,的,18838,6,juede,
452,condition1,0,yiwei_unclear,106,剩,14825,7,yiwei,
452,condition1,0,yiwei_contrastive,10,不,13436,8,yiwei,
452,condition1,0,filler,901,挠,4409,9,filler,
452,condition1,0,juede_contrastive,19,挺,6811,10,juede,
452,condition1,1,juede_unclear,113,说,4881,11,juede,
452,condition1,1,filler,909,画,3631,12,filler,
452,condition1,1,yiwei_contrastive,5,认为,5272,13,yiwei,
452,condition1,1,filler,902,盗,4920,14,filler,
452,condition1,1,yiwei_unclear,102,猜,55121,15,yiwei,
452,condition1,1,yiwei_contrastive,3,就,14745,16,yiwei,
452,condition1,1,juede_contrastive,16,感觉,17540,17,juede,
452,condition1,1,juede_unclear,119,看,5219,18,juede,
452,condition1,1,juede_contrastive,14,出生,4225,19,juede,
452,condition1,1,yiwei_unclear,108,觉得,42810,20,yiwei,
452,condition1,2,yiwei_contrastive,8,赞同,23934,21,yiwei,
452,condition1,2,yiwei_contrastive,7,看,9567,22,yiwei,
452,condition1,2,yiwei_unclear,104,看,26424,23,yiwei,
452,condition1,2,juede_contrastive,20,瞧,6505,24,juede,
452,condition1,2,juede_unclear,118,猜,3631,25,juede,
452,condition1,2,juede_contrastive,12,认为,2944,26,juede,
452,condition1,2,yiwei_unclear,109,觉得,12394,27,yiwei,
452,condition1,2,juede_unclear,120,待在,5981,28,juede,
452,condition1,2,filler,904,揠,5675,29,filler,
452,condition1,2,filler,907,谈,5160,30,filler,
452,condition1,3,filler,905,指,6068,31,filler,
452,condition1,3,filler,910,刻,5330,32,filler,
452,condition1,3,yiwei_unclear,107,说,4384,33,yiwei,
452,condition1,3,yiwei_contrastive,1,说,7050,34,yiwei,
452,condition1,3,yiwei_contrastive,2,瞧,4186,35,yiwei,
452,condition1,3,juede_contrastive,18,待,8254,36,juede,
452,condition1,3,yiwei_unclear,101,责怪,5600,37,yiwei,
452,condition1,3,juede_unclear,112,发现,3405,38,juede,
452,condition1,3,juede_unclear,115,发现,2917,39,juede,
452,condition1,3,juede_contrastive,11,看,5296,40,juede,
452,condition1,4,filler,906,点,2968,41,filler,
452,condition1,4,yiwei_contrastive,4,猜,5038,42,yiwei,
452,condition1,4,juede_contrastive,17,才,3154,43,juede,
452,condition1,4,juede_unclear,117,放,9104,44,juede,
452,condition1,4,yiwei_unclear,105,觉得这,31496,45,yiwei,
452,condition1,4,yiwei_contrastive,6,猜,4632,46,yiwei,
452,condition1,4,filler,908,拆,3703,47,filler,
452,condition1,4,juede_unclear,116,看,3874,48,juede,
452,condition1,4,yiwei_unclear,110,看,13174,49,yiwei,
452,condition1,4,juede_contrastive,13,用的,13978,50,juede,
512,condition1,practice,practice_1,301,放,,0,NA,
512,condition1,practice,practice_2,302,打,,0,NA,
512,condition1,practice,practice_3,303,发,,0,NA,
512,condition1,practice,practice_4,304,闹,,0,NA,
512,condition1,0,juede_contrastive,16,拿的,52709,1,juede,
512,condition1,0,juede_unclear,112,觉得,50361,2,juede,
512,condition1,0,filler,902,盗,14846,3,filler,
512,condition1,0,yiwei_contrastive,9,要的,30216,4,yiwei,
512,condition1,0,yiwei_unclear,103,说,60623,5,yiwei,
512,condition1,0,filler,903,待,27866,6,filler,
512,condition1,0,yiwei_unclear,110,想,14816,7,yiwei,
512,condition1,0,juede_unclear,120,有,170456,8,juede,
512,condition1,0,yiwei_contrastive,1,说,11849,9,yiwei,
512,condition1,0,juede_contrastive,11,戴,54427,10,juede,
512,condition1,1,yiwei_unclear,101,说,75030,11,yiwei,
512,condition1,1,juede_unclear,111,觉得,14247,12,juede,
512,condition1,1,yiwei_unclear,106,算,61512,13,yiwei,
512,condition1,1,juede_unclear,114,不像,77692,14,juede,
512,condition1,1,filler,904,拔,12366,15,filler,
512,condition1,1,yiwei_contrastive,10,还以为,57935,16,yiwei,
512,condition1,1,filler,905,指,13563,17,filler,
512,condition1,1,juede_contrastive,19,觉得,46304,18,juede,
512,condition1,1,juede_contrastive,15,看,59448,19,juede,
512,condition1,1,yiwei_contrastive,5,觉得,12881,20,yiwei,
512,condition1,2,yiwei_contrastive,4,看,13421,21,yiwei,
512,condition1,2,juede_unclear,116,看,76531,22,juede,
512,condition1,2,juede_unclear,118,觉得,68020,23,juede,
512,condition1,2,juede_contrastive,20,看,15149,24,juede,
512,condition1,2,yiwei_contrastive,3,就,52443,25,yiwei,
512,condition1,2,filler,909,画,21870,26,filler,
512,condition1,2,filler,901,挠,34247,27,filler,
512,condition1,2,juede_contrastive,12,觉得,4907,28,juede,
512,condition1,2,yiwei_unclear,109,叫,73334,29,yiwei,
512,condition1,2,yiwei_unclear,104,看,27099,30,yiwei,
512,condition1,3,filler,910,刻,50795,31,filler,
512,condition1,3,juede_contrastive,14,就,49924,32,juede,
512,condition1,3,juede_unclear,117,藏,42482,33,juede,
512,condition1,3,juede_contrastive,17,就,29116,34,juede,
512,condition1,3,yiwei_contrastive,8,可,31995,35,yiwei,
512,condition1,3,yiwei_unclear,107,当,33757,36,yiwei,
512,condition1,3,yiwei_contrastive,2,以为,64574,37,yiwei,
512,condition1,3,yiwei_unclear,108,认为,40349,38,yiwei,
512,condition1,3,filler,908,拆,33105,39,filler,
512,condition1,3,juede_unclear,113,觉得,6393,40,juede,
512,condition1,4,juede_unclear,115,想,50826,41,juede,
512,condition1,4,juede_unclear,119,觉得,17445,42,juede,
512,condition1,4,filler,907,谈,19742,43,filler,
512,condition1,4,yiwei_unclear,102,觉得,37452,44,yiwei,
512,condition1,4,yiwei_contrastive,7,才,34779,45,yiwei,
512,condition1,4,yiwei_unclear,105,就,53516,46,yiwei,
512,condition1,4,yiwei_contrastive,6,觉得,10598,47,yiwei,
512,condition1,4,filler,906,点,37170,48,filler,
512,condition1,4,juede_contrastive,18,怕,12785,49,juede,
512,condition1,4,juede_contrastive,13,就,39558,50,juede,
518,condition1,practice,practice_1,301,放,,0,NA,
518,condition1,practice,practice_2,302,打,,0,NA,
518,condition1,practice,practice_3,303,发,,0,NA,
518,condition1,practice,practice_4,304,闹,,0,NA,
518,condition1,0,juede_contrastive,15,看,24463,1,juede,
518,condition1,0,yiwei_contrastive,3,就,30193,2,yiwei,
518,condition1,0,filler,902,盗,23221,3,filler,
518,condition1,0,juede_unclear,118,看,18368,4,juede,
518,condition1,0,filler,903,待,5228,5,filler,
518,condition1,0,juede_unclear,115,看,9702,6,juede,
518,condition1,0,yiwei_contrastive,8,还,19649,7,yiwei,
518,condition1,0,juede_contrastive,20,这,9691,8,juede,
518,condition1,0,yiwei_unclear,107,说,20655,9,yiwei,
518,condition1,0,yiwei_unclear,104,这,7501,10,yiwei,
518,condition1,1,yiwei_unclear,109,说,7862,11,yiwei,
518,condition1,1,juede_contrastive,17,就,9394,12,juede,
518,condition1,1,juede_unclear,114,看,11037,13,juede,
518,condition1,1,juede_unclear,112,觉得,28426,14,juede,
518,condition1,1,filler,901,挠,17909,15,filler,
518,condition1,1,filler,910,刻,15076,16,filler,
518,condition1,1,yiwei_unclear,105,不过,16755,17,yiwei,
518,condition1,1,yiwei_contrastive,9,看,5090,18,yiwei,
518,condition1,1,juede_contrastive,18,的,7910,19,juede,
518,condition1,1,yiwei_contrastive,1,说,16689,20,yiwei,
518,condition1,2,juede_unclear,120,把,28194,21,juede,
518,condition1,2,juede_contrastive,19,是,13737,22,juede,
518,condition1,2,juede_contrastive,16,的,4623,23,juede,
518,condition1,2,yiwei_unclear,103,以为,14198,24,yiwei,
518,condition1,2,filler,904,揠,17167,25,filler,
518,condition1,2,juede_unclear,113,说,6222,26,juede,
518,condition1,2,yiwei_unclear,101,以为,7697,27,yiwei,
518,condition1,2,yiwei_contrastive,4,觉得,16768,28,yiwei,
518,condition1,2,filler,907,谈,6013,29,filler,
518,condition1,2,yiwei_contrastive,7,看,10500,30,yiwei,
518,condition1,3,yiwei_contrastive,2,看,4012,31,yiwei,
518,condition1,3,yiwei_unclear,108,这样想,16526,32,yiwei,
518,condition1,3,juede_unclear,117,藏,9847,33,juede,
518,condition1,3,juede_contrastive,14,的,6062,34,juede,
518,condition1,3,yiwei_contrastive,6,的,5219,35,yiwei,
518,condition1,3,filler,905,指,12735,36,filler,
518,condition1,3,juede_contrastive,13,说,10129,37,juede,
518,condition1,3,filler,909,画,12773,38,filler,
518,condition1,3,juede_unclear,119,说,9028,39,juede,
518,condition1,3,yiwei_unclear,110,看,10097,40,yiwei,
518,condition1,4,yiwei_contrastive,5,觉得,16086,41,yiwei,
518,condition1,4,juede_contrastive,12,看,3910,42,juede,
518,condition1,4,filler,908,拆,13160,43,filler,
518,condition1,4,juede_unclear,111,觉得,22981,44,juede,
518,condition1,4,juede_unclear,116,看,5415,45,juede,
518,condition1,4,yiwei_contrastive,10,以为,6456,46,yiwei,
518,condition1,4,yiwei_unclear,106,这,7931,47,yiwei,
518,condition1,4,yiwei_unclear,102,说,16940,48,yiwei,
518,condition1,4,filler,906,点,15282,49,filler,
518,condition1,4,juede_contrastive,11,我看,9523,50,juede,
451,condition1,practice,practice_1,301,放,,0,NA,
451,condition1,practice,practice_2,302,打,,0,NA,
451,condition1,practice,practice_3,303,发,,0,NA,
451,condition1,practice,practice_4,304,闹,,0,NA,
451,condition1,0,yiwei_contrastive,9,做,20463,1,yiwei,
451,condition1,0,filler,910,刻,8920,2,filler,
451,condition1,0,yiwei_contrastive,3,就,20065,3,yiwei,
451,condition1,0,juede_contrastive,12,看,3782,4,juede,
451,condition1,0,yiwei_unclear,109,赶,5344,5,yiwei,
451,condition1,0,juede_contrastive,16,打开,14055,6,juede,
451,condition1,0,juede_unclear,116,猜,14592,7,juede,
451,condition1,0,yiwei_unclear,104,打,29473,8,yiwei,
451,condition1,0,juede_unclear,114,晒,19408,9,juede,
451,condition1,0,filler,908,拆,4423,10,filler,
451,condition1,1,filler,906,点,4863,11,filler,
451,condition1,1,yiwei_unclear,103,发现,9912,12,yiwei,
451,condition1,1,yiwei_unclear,110,让,9353,13,yiwei,
451,condition1,1,yiwei_contrastive,5,猜,4223,14,yiwei,
451,condition1,1,juede_unclear,115,猜,6504,15,juede,
451,condition1,1,juede_unclear,118,认为,7448,16,juede,
451,condition1,1,yiwei_contrastive,8,猜,13271,17,yiwei,
451,condition1,1,juede_contrastive,20,说,26144,18,juede,
451,condition1,1,filler,903,待,4087,19,filler,
451,condition1,1,juede_contrastive,11,戴,13207,20,juede,
451,condition1,2,filler,909,画,5800,21,filler,
451,condition1,2,juede_contrastive,18,说,4458,22,juede,
451,condition1,2,yiwei_unclear,106,凭,9031,23,yiwei,
451,condition1,2,yiwei_unclear,105,喜欢,37288,24,yiwei,
451,condition1,2,juede_unclear,113,认为,5592,25,juede,
451,condition1,2,filler,904,拔,6400,26,filler,
451,condition1,2,yiwei_contrastive,4,认为,7080,27,yiwei,
451,condition1,2,juede_contrastive,15,猜,23360,28,juede,
451,condition1,2,juede_unclear,117,放,4616,29,juede,
451,condition1,2,yiwei_contrastive,7,猜,7752,30,yiwei,
451,condition1,3,filler,902,盗,8056,31,filler,
451,condition1,3,filler,905,指,4464,32,filler,
451,condition1,3,juede_contrastive,14,工作,17855,33,juede,
451,condition1,3,yiwei_unclear,107,认为,6239,34,yiwei,
451,condition1,3,yiwei_contrastive,1,叫,7177,35,yiwei,
451,condition1,3,juede_contrastive,17,认为,12761,36,juede,
451,condition1,3,yiwei_contrastive,6,猜,3288,37,yiwei,
451,condition1,3,juede_unclear,120,把,20167,38,juede,
451,condition1,3,yiwei_unclear,102,猜,7807,39,yiwei,
451,condition1,3,juede_unclear,111,认为,5250,40,juede,
451,condition1,4,filler,907,谈,3158,41,filler,
451,condition1,4,yiwei_contrastive,10,以为,33889,42,yiwei,
451,condition1,4,yiwei_unclear,108,任职,15024,43,yiwei,
451,condition1,4,juede_contrastive,19,认为,25399,44,juede,
451,condition1,4,juede_contrastive,13,拿的,16033,45,juede,
451,condition1,4,juede_unclear,112,认为,11751,46,juede,
451,condition1,4,yiwei_unclear,101,认为,8192,47,yiwei,
451,condition1,4,yiwei_contrastive,2,猜,8232,48,yiwei,
451,condition1,4,juede_unclear,119,认为,7064,49,juede,
451,condition1,4,filler,901,挠,5232,50,filler,
502,condition1,practice,practice_1,301,放,,0,NA,
502,condition1,practice,practice_2,302,打,,0,NA,
502,condition1,practice,practice_3,303,發,,0,NA,
502,condition1,practice,practice_4,304,閙,,0,NA,
502,condition1,0,juede_contrastive,15,打,17240,1,juede,
502,condition1,0,juede_unclear,114,見,20729,2,juede,
502,condition1,0,filler,906,點,7770,3,filler,
502,condition1,0,juede_contrastive,20,看,11717,4,juede,
502,condition1,0,yiwei_unclear,109,放,17561,5,yiwei,
502,condition1,0,yiwei_contrastive,6,想,13503,6,yiwei,
502,condition1,0,juede_unclear,118,猜,6438,7,juede,
502,condition1,0,yiwei_unclear,104,看,7806,8,yiwei,
502,condition1,0,filler,905,指,6089,9,filler,
502,condition1,0,yiwei_contrastive,9,想,5599,10,yiwei,
502,condition1,1,juede_unclear,111,認為,8716,11,juede,
502,condition1,1,yiwei_contrastive,10,估計,20203,12,yiwei,
502,condition1,1,filler,903,待,6461,13,filler,
502,condition1,1,yiwei_contrastive,4,猜,21495,14,yiwei,
502,condition1,1,juede_contrastive,11,看來,12434,15,juede,
502,condition1,1,yiwei_unclear,103,以為,9635,16,yiwei,
502,condition1,1,juede_contrastive,13,拿着的,18705,17,juede,
502,condition1,1,juede_unclear,113,提出的,10343,18,juede,
502,condition1,1,yiwei_unclear,108,認同,17998,19,yiwei,
502,condition1,1,filler,904,揠,33679,20,filler,
502,condition1,2,juede_contrastive,17,看,10929,21,juede,
502,condition1,2,filler,910,刻,15532,22,filler,
502,condition1,2,juede_contrastive,18,怕害,16021,23,juede,
502,condition1,2,juede_unclear,116,覺得,21455,24,juede,
502,condition1,2,yiwei_contrastive,5,以為,5634,25,yiwei,
502,condition1,2,yiwei_unclear,102,擔心,16364,26,yiwei,
502,condition1,2,yiwei_unclear,101,以為,9632,27,yiwei,
502,condition1,2,juede_unclear,120,擔心,25035,28,juede,
502,condition1,2,yiwei_contrastive,8,看,33180,29,yiwei,
502,condition1,2,filler,908,拆,8759,30,filler,
502,condition1,3,yiwei_contrastive,3,看,67988,31,yiwei,
502,condition1,3,juede_contrastive,12,認為,9424,32,juede,
502,condition1,3,juede_unclear,119,抱着,22190,33,juede,
502,condition1,3,juede_unclear,112,想,24395,34,juede,
502,condition1,3,yiwei_unclear,110,想,7727,35,yiwei,
502,condition1,3,juede_contrastive,14,想,8198,36,juede,
502,condition1,3,filler,909,畫,6178,37,filler,
502,condition1,3,yiwei_unclear,107,覺得,8628,38,yiwei,
502,condition1,3,yiwei_contrastive,2,以為,8146,39,yiwei,
502,condition1,3,filler,901,撓,91404,40,filler,
502,condition1,4,yiwei_contrastive,1,覺得,11707,41,yiwei,
502,condition1,4,juede_contrastive,16,拿的,12476,42,juede,
502,condition1,4,filler,902,盜,33662,43,filler,
502,condition1,4,juede_unclear,117,放了,9337,44,juede,
502,condition1,4,juede_unclear,115,不認為,11515,45,juede,
502,condition1,4,yiwei_contrastive,7,認為,12818,46,yiwei,
502,condition1,4,yiwei_unclear,105,想,6756,47,yiwei,
502,condition1,4,yiwei_unclear,106,像,13520,48,yiwei,
502,condition1,4,filler,907,談,4173,49,filler,
502,condition1,4,juede_contrastive,19,畫得,15679,50,juede,
485,condition1,practice,practice_1,301,在放,,0,NA,
485,condition1,practice,practice_2,302,打,,0,NA,
485,condition1,practice,practice_3,303,发,,0,NA,
485,condition1,practice,practice_4,304,闹,,0,NA,
485,condition1,0,juede_unclear,112,真的觉得,20201,1,juede,
485,condition1,0,yiwei_unclear,110,听说,9904,2,yiwei,
485,condition1,0,juede_contrastive,18,管理的,48492,3,juede,
485,condition1,0,yiwei_contrastive,2,看到,6712,4,yiwei,
485,condition1,0,juede_contrastive,20,来到的,40032,5,juede,
485,condition1,0,filler,905,指,16714,6,filler,
485,condition1,0,yiwei_contrastive,10,觉得我,74770,7,yiwei,
485,condition1,0,juede_unclear,111,发现,4719,8,juede,
485,condition1,0,filler,901,搔,25206,9,filler,
485,condition1,0,yiwei_unclear,107,是男的而,21913,10,yiwei,
485,condition1,1,filler,904,拔,11361,11,filler,
485,condition1,1,juede_unclear,117,藏,13686,12,juede,
485,condition1,1,yiwei_contrastive,4,喜欢,11294,13,yiwei,
485,condition1,1,filler,902,偷,25474,14,filler,
485,condition1,1,yiwei_unclear,103,给他的,34075,15,yiwei,
485,condition1,1,yiwei_contrastive,5,和,11802,16,yiwei,
485,condition1,1,juede_contrastive,13,买的,17034,17,juede,
485,condition1,1,juede_unclear,116,死,18049,18,juede,
485,condition1,1,juede_contrastive,17,觉得,13550,19,juede,
485,condition1,1,yiwei_unclear,102,说,11438,20,yiwei,
485,condition1,2,filler,906,点,5160,21,filler,
485,condition1,2,juede_unclear,120,站在,9536,22,juede,
485,condition1,2,filler,910,刻,25422,23,filler,
485,condition1,2,yiwei_contrastive,3,想的,9776,24,yiwei,
485,condition1,2,juede_contrastive,15,画的,19078,25,juede,
485,condition1,2,juede_unclear,114,看到,19731,26,juede,
485,condition1,2,yiwei_unclear,108,犯错了，这就,23963,27,yiwei,
485,condition1,2,yiwei_contrastive,9,想,7774,28,yiwei,
485,condition1,2,yiwei_unclear,101,会觉得,6466,29,yiwei,
485,condition1,2,juede_contrastive,16,买的,5135,30,juede,
485,condition1,3,juede_contrastive,11,我看,10119,31,juede,
485,condition1,3,yiwei_unclear,106,发现,51721,32,yiwei,
485,condition1,3,juede_contrastive,14,找到,10930,33,juede,
485,condition1,3,juede_unclear,119,伺候,10682,34,juede,
485,condition1,3,yiwei_unclear,105,玩的,19712,35,yiwei,
485,condition1,3,yiwei_contrastive,1,说,15648,36,yiwei,
485,condition1,3,filler,903,待,5750,37,filler,
485,condition1,3,juede_unclear,113,都说,7376,38,juede,
485,condition1,3,filler,908,拆,8554,39,filler,
485,condition1,3,yiwei_contrastive,7,觉得,7252,40,yiwei,
485,condition1,4,yiwei_contrastive,8,买的,8468,41,yiwei,
485,condition1,4,yiwei_unclear,109,希望,22948,42,yiwei,
485,condition1,4,yiwei_unclear,104,看好,31278,43,yiwei,
485,condition1,4,yiwei_contrastive,6,喜欢吃的,19926,44,yiwei,
485,condition1,4,juede_contrastive,12,认为,7360,45,juede,
485,condition1,4,filler,909,画,6420,46,filler,
485,condition1,4,filler,907,谈,18859,47,filler,
485,condition1,4,juede_contrastive,19,做的,24556,48,juede,
485,condition1,4,juede_unclear,115,发现,6836,49,juede,
485,condition1,4,juede_unclear,118,去追,19397,50,juede,
506,condition1,practice,practice_1,301,放,,0,NA,
506,condition1,practice,practice_2,302,打,,0,NA,
506,condition1,practice,practice_3,303,闹,,0,NA,
506,condition1,practice,practice_4,304,闹,,0,NA,
506,condition1,0,yiwei_contrastive,3,想,21334,1,yiwei,
506,condition1,0,juede_contrastive,13,觉得,56516,2,juede,
506,condition1,0,juede_unclear,119,看,4907,3,juede,
506,condition1,0,juede_unclear,120,说,13988,4,juede,
506,condition1,0,yiwei_contrastive,9,想,6093,5,yiwei,
506,condition1,0,yiwei_unclear,110,认为,9152,6,yiwei,
506,condition1,0,juede_contrastive,20,说,76558,7,juede,
506,condition1,0,filler,901,挠,5436,8,filler,
506,condition1,0,filler,905,指,9218,9,filler,
506,condition1,0,yiwei_unclear,106,剩,6667,10,yiwei,
506,condition1,1,juede_unclear,113,说,4946,11,juede,
506,condition1,1,juede_contrastive,16,看,5600,12,juede,
506,condition1,1,juede_unclear,111,觉得,5901,13,juede,
506,condition1,1,filler,908,拆,14953,14,filler,
506,condition1,1,yiwei_contrastive,4,说,7150,15,yiwei,
506,condition1,1,yiwei_unclear,104,看,3696,16,yiwei,
506,condition1,1,filler,904,拔,4234,17,filler,
506,condition1,1,yiwei_unclear,101,以为,5989,18,yiwei,
506,condition1,1,juede_contrastive,15,看,3600,19,juede,
506,condition1,1,yiwei_contrastive,2,以为,5482,20,yiwei,
506,condition1,2,juede_contrastive,12,觉得,6099,21,juede,
506,condition1,2,yiwei_contrastive,7,觉得,5171,22,yiwei,
506,condition1,2,yiwei_unclear,107,以为,4170,23,yiwei,
506,condition1,2,juede_unclear,114,看,5264,24,juede,
506,condition1,2,juede_unclear,118,觉得,3851,25,juede,
506,condition1,2,filler,902,盗,4383,26,filler,
506,condition1,2,yiwei_contrastive,6,觉得,4318,27,yiwei,
506,condition1,2,yiwei_unclear,108,说,6658,28,yiwei,
506,condition1,2,juede_contrastive,19,觉得,4079,29,juede,
506,condition1,2,filler,907,谈,4121,30,filler,
506,condition1,3,yiwei_contrastive,10,以为,3550,31,yiwei,
506,condition1,3,yiwei_unclear,109,让,3411,32,yiwei,
506,condition1,3,filler,910,刻,4639,33,filler,
506,condition1,3,filler,909,画,3967,34,filler,
506,condition1,3,juede_contrastive,17,当,5533,35,juede,
506,condition1,3,juede_contrastive,14,说,4599,36,juede,
506,condition1,3,yiwei_unclear,102,说,4301,37,yiwei,
506,condition1,3,juede_unclear,116,觉得,5301,38,juede,
506,condition1,3,yiwei_contrastive,5,以为,5000,39,yiwei,
506,condition1,3,juede_unclear,112,发现,15748,40,juede,
506,condition1,4,yiwei_contrastive,1,说,3801,41,yiwei,
506,condition1,4,juede_unclear,115,觉得,4784,42,juede,
506,condition1,4,yiwei_unclear,103,以为,9778,43,yiwei,
506,condition1,4,juede_unclear,117,放,3559,44,juede,
506,condition1,4,yiwei_unclear,105,觉得,172737,45,yiwei,
506,condition1,4,juede_contrastive,11,看,10274,46,juede,
506,condition1,4,yiwei_contrastive,8,以为,4266,47,yiwei,
506,condition1,4,filler,906,点,3484,48,filler,
506,condition1,4,juede_contrastive,18,认为,6248,49,juede,
506,condition1,4,filler,903,待,4136,50,filler,
511,condition1,practice,practice_1,301,放,,0,NA,
511,condition1,practice,practice_2,302,打,,0,NA,
511,condition1,practice,practice_3,303,发,,0,NA,
511,condition1,practice,practice_4,304,闹,,0,NA,
511,condition1,0,juede_unclear,114,推,70743,1,juede,
511,condition1,0,juede_contrastive,17,要,31820,2,juede,
511,condition1,0,yiwei_unclear,107,说,17182,3,yiwei,
511,condition1,0,juede_unclear,117,放,8101,4,juede,
511,condition1,0,filler,906,点,5750,5,filler,
511,condition1,0,juede_contrastive,18,说,6596,6,juede,
511,condition1,0,yiwei_contrastive,1,说,7167,7,yiwei,
511,condition1,0,filler,901,挠,7383,8,filler,
511,condition1,0,yiwei_contrastive,9,买的,21500,9,yiwei,
511,condition1,0,yiwei_unclear,101,怪罪,10317,10,yiwei,
511,condition1,1,juede_contrastive,19,觉得,9649,11,juede,
511,condition1,1,juede_unclear,119,你看,7069,12,juede,
511,condition1,1,juede_unclear,111,觉得,5617,13,juede,
511,condition1,1,yiwei_contrastive,10,以为,21812,14,yiwei,
511,condition1,1,filler,904,拔,7867,15,filler,
511,condition1,1,yiwei_contrastive,7,的伤,29083,16,yiwei,
511,condition1,1,filler,909,画,13019,17,filler,
511,condition1,1,yiwei_unclear,110,以为,36147,18,yiwei,
511,condition1,1,juede_contrastive,13,说的,10620,19,juede,
511,condition1,1,yiwei_unclear,108,忽略了原本,51829,20,yiwei,
511,condition1,2,juede_unclear,113,都觉得,5300,21,juede,
511,condition1,2,yiwei_contrastive,8,找了,24383,22,yiwei,
511,condition1,2,filler,903,待,6616,23,filler,
511,condition1,2,juede_contrastive,20,画的,11567,24,juede,
511,condition1,2,filler,902,盗,6083,25,filler,
511,condition1,2,yiwei_unclear,109,送,11167,26,yiwei,
511,condition1,2,juede_contrastive,16,买的,6266,27,juede,
511,condition1,2,yiwei_unclear,106,发现,22433,28,yiwei,
511,condition1,2,yiwei_contrastive,3,之前说,15050,29,yiwei,
511,condition1,2,juede_unclear,118,认为,15949,30,juede,
511,condition1,3,yiwei_unclear,103,以为,9816,31,yiwei,
511,condition1,3,yiwei_contrastive,2,觉得,10850,32,yiwei,
511,condition1,3,yiwei_unclear,102,认为,9203,33,yiwei,
511,condition1,3,filler,907,谈,3633,34,filler,
511,condition1,3,filler,910,画,9251,35,filler,
511,condition1,3,juede_unclear,120,以为,8779,36,juede,
511,condition1,3,juede_contrastive,14,以为,32487,37,juede,
511,condition1,3,yiwei_contrastive,5,以为,12780,38,yiwei,
511,condition1,3,juede_unclear,112,发现,9966,39,juede,
511,condition1,3,juede_contrastive,11,选,21722,40,juede,
511,condition1,4,juede_contrastive,12,觉得,5311,41,juede,
511,condition1,4,juede_unclear,115,认为,8983,42,juede,
511,condition1,4,juede_contrastive,15,画的,16221,43,juede,
511,condition1,4,juede_unclear,116,感觉,8145,44,juede,
511,condition1,4,yiwei_unclear,104,看看,16383,45,yiwei,
511,condition1,4,filler,905,指,6166,46,filler,
511,condition1,4,filler,908,拆,7350,47,filler,
511,condition1,4,yiwei_unclear,105,习惯的,19017,48,yiwei,
511,condition1,4,yiwei_contrastive,6,听说,11766,49,yiwei,
511,condition1,4,yiwei_contrastive,4,听说,7250,50,yiwei,
466,condition1,practice,practice_1,301,放,,0,NA,
466,condition1,practice,practice_2,302,打,,0,NA,
466,condition1,practice,practice_3,303,发,,0,NA,
466,condition1,practice,practice_4,304,闹,,0,NA,
466,condition1,0,filler,909,画,7766,1,filler,
466,condition1,0,yiwei_contrastive,10,弄,73328,2,yiwei,
466,condition1,0,yiwei_unclear,101,以为,58384,3,yiwei,
466,condition1,0,juede_unclear,120,看见,39792,4,juede,
466,condition1,0,juede_contrastive,14,藏,35017,5,juede,
466,condition1,0,juede_contrastive,17,看,22959,6,juede,
466,condition1,0,yiwei_contrastive,1,说,6695,7,yiwei,
466,condition1,0,filler,906,点,7448,8,filler,
466,condition1,0,juede_unclear,119,看,6609,9,juede,
466,condition1,0,yiwei_unclear,107,说,7671,10,yiwei,
466,condition1,1,yiwei_unclear,103,看,7552,11,yiwei,
466,condition1,1,filler,901,挠,6184,12,filler,
466,condition1,1,filler,907,谈,4551,13,filler,
466,condition1,1,juede_contrastive,19,是,8416,14,juede,
466,condition1,1,yiwei_contrastive,9,说,7633,15,yiwei,
466,condition1,1,yiwei_contrastive,4,说,6615,16,yiwei,
466,condition1,1,juede_unclear,113,说,4536,17,juede,
466,condition1,1,yiwei_unclear,106,说,5992,18,yiwei,
466,condition1,1,juede_unclear,115,看,4432,19,juede,
466,condition1,1,juede_contrastive,16,看,5040,20,juede,
466,condition1,2,juede_contrastive,12,看,4176,21,juede,
466,condition1,2,yiwei_unclear,110,说,8360,22,yiwei,
466,condition1,2,yiwei_contrastive,2,看,4392,23,yiwei,
466,condition1,2,juede_unclear,118,看,4368,24,juede,
466,condition1,2,juede_unclear,117,说,7992,25,juede,
466,condition1,2,filler,908,拆,5592,26,filler,
466,condition1,2,filler,905,指,7321,27,filler,
466,condition1,2,yiwei_unclear,105,看,8191,28,yiwei,
466,condition1,2,juede_contrastive,20,说,4904,29,juede,
466,condition1,2,yiwei_contrastive,6,说,4936,30,yiwei,
466,condition1,3,yiwei_contrastive,8,看,4240,31,yiwei,
466,condition1,3,juede_contrastive,18,说,4808,32,juede,
466,condition1,3,yiwei_contrastive,3,说,7354,33,yiwei,
466,condition1,3,filler,903,待,4974,34,filler,
466,condition1,3,yiwei_unclear,104,看,10504,35,yiwei,
466,condition1,3,juede_unclear,112,说,4953,36,juede,
466,condition1,3,juede_contrastive,11,看,5271,37,juede,
466,condition1,3,filler,910,刻,7824,38,filler,
466,condition1,3,juede_unclear,116,看,4968,39,juede,
466,condition1,3,yiwei_unclear,109,说,4312,40,yiwei,
466,condition1,4,yiwei_unclear,108,说,5072,41,yiwei,
466,condition1,4,juede_contrastive,15,看,3992,42,juede,
466,condition1,4,juede_unclear,111,说,4552,43,juede,
466,condition1,4,yiwei_contrastive,7,看,4288,44,yiwei,
466,condition1,4,yiwei_unclear,102,说,4120,45,yiwei,
466,condition1,4,juede_contrastive,13,说,7840,46,juede,
466,condition1,4,filler,904,拔,6488,47,filler,
466,condition1,4,juede_unclear,114,看,4969,48,juede,
466,condition1,4,filler,902,盗,6311,49,filler,
466,condition1,4,yiwei_contrastive,5,看,6136,50,yiwei,
522,condition1,practice,practice_1,301,放,,0,NA,
522,condition1,practice,practice_2,302,打,,0,NA,
522,condition1,practice,practice_3,303,发,,0,NA,
522,condition1,practice,practice_4,304,闹,,0,NA,
522,condition1,0,juede_unclear,113,觉得,19770,1,juede,
522,condition1,0,yiwei_unclear,104,带着,41754,2,yiwei,
522,condition1,0,juede_contrastive,12,觉得,7084,3,juede,
522,condition1,0,filler,909,画,7936,4,filler,
522,condition1,0,yiwei_unclear,109,说,15468,5,yiwei,
522,condition1,0,filler,905,比,33538,6,filler,
522,condition1,0,yiwei_contrastive,4,说,10635,7,yiwei,
522,condition1,0,juede_unclear,117,打开,36250,8,juede,
522,condition1,0,juede_contrastive,19,觉得,72715,9,juede,
522,condition1,0,yiwei_contrastive,8,说,20288,10,yiwei,
522,condition1,1,juede_unclear,120,站在,10251,11,juede,
522,condition1,1,filler,907,谈,6119,12,filler,
522,condition1,1,yiwei_contrastive,1,说,7667,13,yiwei,
522,condition1,1,juede_contrastive,16,感觉,9017,14,juede,
522,condition1,1,juede_unclear,119,说,6369,15,juede,
522,condition1,1,yiwei_unclear,101,觉得,9800,16,yiwei,
522,condition1,1,yiwei_unclear,105,以为,14935,17,yiwei,
522,condition1,1,juede_contrastive,13,说,10770,18,juede,
522,condition1,1,filler,902,盗,6617,19,filler,
522,condition1,1,yiwei_contrastive,3,说,13818,20,yiwei,
522,condition1,2,yiwei_unclear,110,认为,17635,21,yiwei,
522,condition1,2,yiwei_contrastive,10,以为,9446,22,yiwei,
522,condition1,2,juede_unclear,115,觉得,6984,23,juede,
522,condition1,2,filler,906,点,6869,24,filler,
522,condition1,2,juede_unclear,111,觉得,8000,25,juede,
522,condition1,2,juede_contrastive,20,说,14602,26,juede,
522,condition1,2,yiwei_contrastive,6,吃的,12937,27,yiwei,
522,condition1,2,yiwei_unclear,108,认为,14184,28,yiwei,
522,condition1,2,juede_contrastive,14,觉得,7385,29,juede,
522,condition1,2,filler,908,拆,6184,30,filler,
522,condition1,3,filler,904,偃,31835,31,filler,
522,condition1,3,yiwei_unclear,107,说,7650,32,yiwei,
522,condition1,3,juede_unclear,118,觉得,6734,33,juede,
522,condition1,3,yiwei_contrastive,5,以为,5902,34,yiwei,
522,condition1,3,juede_contrastive,11,戴,10499,35,juede,
522,condition1,3,yiwei_unclear,102,以为,9361,36,yiwei,
522,condition1,3,yiwei_contrastive,2,觉得,8501,37,yiwei,
522,condition1,3,filler,901,挠,7885,38,filler,
522,condition1,3,juede_contrastive,18,感觉,9802,39,juede,
522,condition1,3,juede_unclear,114,送给,28574,40,juede,
522,condition1,4,juede_unclear,116,看,12701,41,juede,
522,condition1,4,yiwei_contrastive,7,看,12969,42,yiwei,
522,condition1,4,filler,910,刻,10119,43,filler,
522,condition1,4,juede_contrastive,15,说,16153,44,juede,
522,condition1,4,yiwei_contrastive,9,认为,5766,45,yiwei,
522,condition1,4,yiwei_unclear,106,说,8536,46,yiwei,
522,condition1,4,juede_contrastive,17,说,12118,47,juede,
522,condition1,4,juede_unclear,112,感觉,7785,48,juede,
522,condition1,4,filler,903,待,7750,49,filler,
522,condition1,4,yiwei_unclear,103,说,9202,50,yiwei,
439,condition1,practice,practice_1,301,放,,0,NA,
439,condition1,practice,practice_2,302,打,,0,NA,
439,condition1,practice,practice_3,303,发,,0,NA,
439,condition1,practice,practice_4,304,闹,,0,NA,
439,condition1,0,yiwei_contrastive,3,坚持,120580,1,yiwei,
439,condition1,0,filler,903,待,13012,2,filler,
439,condition1,0,yiwei_unclear,104,学,88534,3,yiwei,
439,condition1,0,yiwei_contrastive,4,喊,75968,4,yiwei,
439,condition1,0,juede_contrastive,19,是,37468,5,juede,
439,condition1,0,juede_unclear,116,执,96914,6,juede,
439,condition1,0,yiwei_unclear,109,放,22220,7,yiwei,
439,condition1,0,filler,908,拆,18877,8,filler,
439,condition1,0,juede_unclear,117,锁,13138,9,juede,
439,condition1,0,juede_contrastive,15,看,30614,10,juede,
439,condition1,1,juede_unclear,115,同意,19477,11,juede,
439,condition1,1,yiwei_unclear,108,前进,86253,12,yiwei,
439,condition1,1,filler,906,点,14104,13,filler,
439,condition1,1,yiwei_unclear,103,以为,16063,14,yiwei,
439,condition1,1,juede_contrastive,11,选,23222,15,juede,
439,condition1,1,filler,909,画,14450,16,filler,
439,condition1,1,juede_contrastive,14,确认,25448,17,juede,
439,condition1,1,yiwei_contrastive,1,说,21435,18,yiwei,
439,condition1,1,juede_unclear,113,认为,19952,19,juede,
439,condition1,1,yiwei_contrastive,9,确定,23462,20,yiwei,
439,condition1,2,juede_contrastive,17,确定,53434,21,juede,
439,condition1,2,yiwei_unclear,105,断定,22973,22,yiwei,
439,condition1,2,juede_unclear,112,知道,16871,23,juede,
439,condition1,2,juede_contrastive,18,说,22472,24,juede,
439,condition1,2,yiwei_contrastive,7,肯定,42819,25,yiwei,
439,condition1,2,yiwei_unclear,107,以为,50840,26,yiwei,
439,condition1,2,filler,910,刻,12912,27,filler,
439,condition1,2,yiwei_contrastive,5,猜,27899,28,yiwei,
439,condition1,2,juede_unclear,114,觉得,48953,29,juede,
439,condition1,2,filler,905,指,14063,30,filler,
439,condition1,3,filler,902,盗,14999,31,filler,
439,condition1,3,yiwei_unclear,102,幻想,26530,32,yiwei,
439,condition1,3,juede_unclear,111,认为,17926,33,juede,
439,condition1,3,juede_unclear,120,怕,29533,34,juede,
439,condition1,3,filler,907,谈,12122,35,filler,
439,condition1,3,juede_contrastive,16,觉得,28975,36,juede,
439,condition1,3,juede_contrastive,12,认为,28237,37,juede,
439,condition1,3,yiwei_contrastive,8,选择,19212,38,yiwei,
439,condition1,3,yiwei_unclear,110,猜,32648,39,yiwei,
439,condition1,3,yiwei_contrastive,10,猜测,53495,40,yiwei,
439,condition1,4,juede_unclear,118,想,18741,41,juede,
439,condition1,4,juede_contrastive,13,选择,44453,42,juede,
439,condition1,4,filler,904,拔,13015,43,filler,
439,condition1,4,yiwei_unclear,101,说,17632,44,yiwei,
439,condition1,4,juede_contrastive,20,说,16511,45,juede,
439,condition1,4,yiwei_contrastive,2,想,16842,46,yiwei,
439,condition1,4,yiwei_unclear,106,怕,16951,47,yiwei,
439,condition1,4,filler,901,挠,13593,48,filler,
439,condition1,4,yiwei_contrastive,6,以为,12503,49,yiwei,
439,condition1,4,juede_unclear,119,想,14618,50,juede,
504,condition1,practice,practice_1,301,放,,0,NA,
504,condition1,practice,practice_2,302,打,,0,NA,
504,condition1,practice,practice_3,303,发,,0,NA,
504,condition1,practice,practice_4,304,闹,,0,NA,
504,condition1,0,yiwei_contrastive,6,晚饭,11473,1,yiwei,
504,condition1,0,filler,903,待,4472,2,filler,
504,condition1,0,juede_contrastive,19,不是,8771,3,juede,
504,condition1,0,juede_contrastive,18,家,7053,4,juede,
504,condition1,0,yiwei_unclear,102,说,11498,5,yiwei,
504,condition1,0,juede_unclear,119,喂,11864,6,juede,
504,condition1,0,yiwei_contrastive,9,也,4193,7,yiwei,
504,condition1,0,filler,904,揠,10779,8,filler,
504,condition1,0,juede_unclear,120,觉得有,15002,9,juede,
504,condition1,0,yiwei_unclear,110,说,12084,10,yiwei,
504,condition1,1,juede_contrastive,13,这,9248,11,juede,
504,condition1,1,filler,907,谈,3258,12,filler,
504,condition1,1,juede_unclear,114,看,10693,13,juede,
504,condition1,1,yiwei_unclear,103,才,18913,14,yiwei,
504,condition1,1,yiwei_contrastive,3,就,5658,15,yiwei,
504,condition1,1,juede_unclear,116,看见,12177,16,juede,
504,condition1,1,juede_contrastive,17,以为,12079,17,juede,
504,condition1,1,yiwei_contrastive,7,手,11263,18,yiwei,
504,condition1,1,filler,906,点,4328,19,filler,
504,condition1,1,yiwei_unclear,108,爸爸,27521,20,yiwei,
504,condition1,2,juede_unclear,115,不认为,7369,21,juede,
504,condition1,2,filler,902,盗,6587,22,filler,
504,condition1,2,filler,901,挠,4417,23,filler,
504,condition1,2,juede_contrastive,16,的,5473,24,juede,
504,condition1,2,yiwei_contrastive,1,说,4191,25,yiwei,
504,condition1,2,juede_contrastive,20,说这,11268,26,juede,
504,condition1,2,yiwei_unclear,109,让,3081,27,yiwei,
504,condition1,2,juede_unclear,113,觉得,3742,28,juede,
504,condition1,2,yiwei_contrastive,10,不,20249,29,yiwei,
504,condition1,2,yiwei_unclear,105,也,8716,30,yiwei,
504,condition1,3,yiwei_unclear,101,以为,12946,31,yiwei,
504,condition1,3,juede_unclear,117,藏,6740,32,juede,
504,condition1,3,juede_contrastive,11,还是,3479,33,juede,
504,condition1,3,yiwei_unclear,104,小心,6746,34,yiwei,
504,condition1,3,filler,909,画,5260,35,filler,
504,condition1,3,juede_contrastive,14,也,4235,36,juede,
504,condition1,3,yiwei_contrastive,2,看是,9941,37,yiwei,
504,condition1,3,juede_unclear,112,真的,9607,38,juede,
504,condition1,3,filler,908,拆,6310,39,filler,
504,condition1,3,yiwei_contrastive,4,认,5731,40,yiwei,
504,condition1,4,yiwei_contrastive,8,说我,9598,41,yiwei,
504,condition1,4,yiwei_contrastive,5,不知道,7373,42,yiwei,
504,condition1,4,juede_contrastive,12,觉得,6442,43,juede,
504,condition1,4,juede_contrastive,15,踢的,14173,44,juede,
504,condition1,4,juede_unclear,118,看,4029,45,juede,
504,condition1,4,filler,905,指,8420,46,filler,
504,condition1,4,filler,910,刻,10844,47,filler,
504,condition1,4,yiwei_unclear,107,觉得,10678,48,yiwei,
504,condition1,4,yiwei_unclear,106,只有,8039,49,yiwei,
504,condition1,4,juede_unclear,111,觉得,7425,50,juede,
524,condition1,practice,practice_1,301,放,,0,NA,
524,condition1,practice,practice_2,302,打,,0,NA,
524,condition1,practice,practice_3,303,发,,0,NA,
524,condition1,practice,practice_4,304,闹,,0,NA,
524,condition1,0,filler,906,点,7677,1,filler,
524,condition1,0,juede_contrastive,20,说,23041,2,juede,
524,condition1,0,juede_contrastive,17,看,8023,3,juede,
524,condition1,0,juede_unclear,118,猜,7270,4,juede,
524,condition1,0,yiwei_contrastive,6,猜,9947,5,yiwei,
524,condition1,0,juede_unclear,112,发现,114558,6,juede,
524,condition1,0,yiwei_unclear,109,推测,19824,7,yiwei,
524,condition1,0,yiwei_unclear,105,玩,91180,8,yiwei,
524,condition1,0,yiwei_contrastive,7,像,105916,9,yiwei,
524,condition1,0,filler,905,指,11174,10,filler,
524,condition1,1,juede_unclear,120,扮演,11954,11,juede,
524,condition1,1,yiwei_unclear,101,责怪,10156,12,yiwei,
524,condition1,1,juede_contrastive,16,带来,25112,13,juede,
524,condition1,1,yiwei_contrastive,10,以为,5537,14,yiwei,
524,condition1,1,filler,909,画,9277,15,filler,
524,condition1,1,yiwei_contrastive,8,猜,8846,16,yiwei,
524,condition1,1,filler,907,谈,5835,17,filler,
524,condition1,1,juede_contrastive,14,猜,4973,18,juede,
524,condition1,1,yiwei_unclear,106,看到,10257,19,yiwei,
524,condition1,1,juede_unclear,117,放,9161,20,juede,
524,condition1,2,juede_unclear,115,说,6077,21,juede,
524,condition1,2,yiwei_contrastive,9,猜,4769,22,yiwei,
524,condition1,2,yiwei_unclear,104,看,11017,23,yiwei,
524,condition1,2,filler,903,待,7004,24,filler,
524,condition1,2,yiwei_unclear,107,觉得,12118,25,yiwei,
524,condition1,2,filler,902,盗,5823,26,filler,
524,condition1,2,yiwei_contrastive,3,说,18238,27,yiwei,
524,condition1,2,juede_unclear,116,说,12746,28,juede,
524,condition1,2,juede_contrastive,19,是,14588,29,juede,
524,condition1,2,juede_contrastive,15,看,10934,30,juede,
524,condition1,3,juede_unclear,113,觉得,6508,31,juede,
524,condition1,3,juede_unclear,114,觉得,9615,32,juede,
524,condition1,3,filler,904,拔,8587,33,filler,
524,condition1,3,yiwei_contrastive,1,说,11562,34,yiwei,
524,condition1,3,yiwei_unclear,110,认为,20282,35,yiwei,
524,condition1,3,yiwei_contrastive,4,觉得,8064,36,yiwei,
524,condition1,3,yiwei_unclear,108,以为,14747,37,yiwei,
524,condition1,3,filler,901,挠,8395,38,filler,
524,condition1,3,juede_contrastive,13,看,10270,39,juede,
524,condition1,3,juede_contrastive,11,看,10435,40,juede,
524,condition1,4,juede_unclear,111,觉得,5157,41,juede,
524,condition1,4,filler,908,拆,6820,42,filler,
524,condition1,4,yiwei_unclear,102,描述,10046,43,yiwei,
524,condition1,4,yiwei_unclear,103,以为,13096,44,yiwei,
524,condition1,4,yiwei_contrastive,2,以为,11101,45,yiwei,
524,condition1,4,filler,910,刻,8731,46,filler,
524,condition1,4,juede_contrastive,12,认为,7849,47,juede,
524,condition1,4,juede_contrastive,18,猜,8845,48,juede,
524,condition1,4,juede_unclear,119,说,9075,49,juede,
524,condition1,4,yiwei_contrastive,5,猜,7720,50,yiwei,
456,condition1,practice,practice_1,301,放,,0,NA,
456,condition1,practice,practice_2,302,打,,0,NA,
456,condition1,practice,practice_3,303,發,,0,NA,
456,condition1,practice,practice_4,304,鬧,,0,NA,
456,condition1,0,yiwei_contrastive,10,看,38992,1,yiwei,
456,condition1,0,juede_unclear,119,說,7759,2,juede,
456,condition1,0,yiwei_unclear,108,負責,87474,3,yiwei,
456,condition1,0,yiwei_contrastive,7,看,14018,4,yiwei,
456,condition1,0,juede_unclear,113,覺得,8835,5,juede,
456,condition1,0,filler,907,談,3833,6,filler,
456,condition1,0,filler,902,盜,8713,7,filler,
456,condition1,0,juede_contrastive,14,看,23756,8,juede,
456,condition1,0,juede_contrastive,12,看,14917,9,juede,
456,condition1,0,yiwei_unclear,104,告訴,6762,10,yiwei,
456,condition1,1,yiwei_unclear,102,說,9650,11,yiwei,
456,condition1,1,yiwei_contrastive,1,說,14438,12,yiwei,
456,condition1,1,juede_unclear,112,說,6301,13,juede,
456,condition1,1,yiwei_contrastive,9,看,4564,14,yiwei,
456,condition1,1,filler,904,揠,7920,15,filler,
456,condition1,1,juede_unclear,111,覺得,6099,16,juede,
456,condition1,1,yiwei_unclear,105,覺得,12234,17,yiwei,
456,condition1,1,filler,901,撓,62401,18,filler,
456,condition1,1,juede_contrastive,15,摸,24984,19,juede,
456,condition1,1,juede_contrastive,11,看,5928,20,juede,
456,condition1,2,juede_contrastive,18,說,7067,21,juede,
456,condition1,2,juede_contrastive,19,說,15002,22,juede,
456,condition1,2,juede_unclear,118,覺得,6416,23,juede,
456,condition1,2,yiwei_contrastive,4,聽,9334,24,yiwei,
456,condition1,2,juede_unclear,116,看,8582,25,juede,
456,condition1,2,filler,909,畫,4717,26,filler,
456,condition1,2,filler,905,比,7040,27,filler,
456,condition1,2,yiwei_contrastive,6,看,6082,28,yiwei,
456,condition1,2,yiwei_unclear,103,看,6217,29,yiwei,
456,condition1,2,yiwei_unclear,109,看,4083,30,yiwei,
456,condition1,3,filler,903,待,13546,31,filler,
456,condition1,3,juede_contrastive,20,覺得,11350,32,juede,
456,condition1,3,juede_unclear,114,看,11351,33,juede,
456,condition1,3,juede_contrastive,13,說,8465,34,juede,
456,condition1,3,yiwei_contrastive,5,看,7820,35,yiwei,
456,condition1,3,yiwei_unclear,106,說,10033,36,yiwei,
456,condition1,3,juede_unclear,117,看,5848,37,juede,
456,condition1,3,yiwei_contrastive,8,看,3651,38,yiwei,
456,condition1,3,yiwei_unclear,101,以為,7159,39,yiwei,
456,condition1,3,filler,908,拆,5500,40,filler,
456,condition1,4,filler,906,點,5250,41,filler,
456,condition1,4,yiwei_contrastive,3,看,9350,42,yiwei,
456,condition1,4,juede_contrastive,17,覺得,5034,43,juede,
456,condition1,4,juede_unclear,120,覺得,10435,44,juede,
456,condition1,4,filler,910,追,10178,45,filler,
456,condition1,4,yiwei_unclear,110,覺得,17851,46,yiwei,
456,condition1,4,yiwei_contrastive,2,看,6002,47,yiwei,
456,condition1,4,yiwei_unclear,107,說,5565,48,yiwei,
456,condition1,4,juede_unclear,115,覺得,6735,49,juede,
456,condition1,4,juede_contrastive,16,覺得,6847,50,juede,
499,condition1,practice,practice_1,301,放,,0,NA,
499,condition1,practice,practice_2,302,打,,0,NA,
499,condition1,practice,practice_3,303,发,,0,NA,
499,condition1,practice,practice_4,304,闹,,0,NA,
499,condition1,0,juede_contrastive,17,拿地,26630,1,juede,
499,condition1,0,filler,905,指,11248,2,filler,
499,condition1,0,yiwei_unclear,103,以为,21095,3,yiwei,
499,condition1,0,yiwei_contrastive,2,让,13425,4,yiwei,
499,condition1,0,juede_contrastive,12,觉得,4648,5,juede,
499,condition1,0,yiwei_contrastive,5,看,10911,6,yiwei,
499,condition1,0,yiwei_unclear,110,以为,17407,7,yiwei,
499,condition1,0,juede_unclear,120,站在,9553,8,juede,
499,condition1,0,filler,906,点,12472,9,filler,
499,condition1,0,juede_unclear,114,不像,16792,10,juede,
499,condition1,1,juede_contrastive,19,和这,20960,11,juede,
499,condition1,1,yiwei_contrastive,4,觉得,9984,12,yiwei,
499,condition1,1,juede_contrastive,13,拿的,18272,13,juede,
499,condition1,1,yiwei_contrastive,7,手,49151,14,yiwei,
499,condition1,1,yiwei_unclear,102,看到,6281,15,yiwei,
499,condition1,1,filler,904,拔,12248,16,filler,
499,condition1,1,yiwei_unclear,107,说,8679,17,yiwei,
499,condition1,1,juede_unclear,113,觉得,5680,18,juede,
499,condition1,1,filler,901,挠,10040,19,filler,
499,condition1,1,juede_unclear,118,跑,6256,20,juede,
499,condition1,2,filler,907,谈,4664,21,filler,
499,condition1,2,juede_unclear,111,认为,9464,22,juede,
499,condition1,2,juede_contrastive,16,打开地,20320,23,juede,
499,condition1,2,yiwei_contrastive,3,想,24656,24,yiwei,
499,condition1,2,yiwei_contrastive,9,有,9000,25,yiwei,
499,condition1,2,yiwei_unclear,101,以为,6952,26,yiwei,
499,condition1,2,juede_contrastive,20,找到地,12720,27,juede,
499,condition1,2,juede_unclear,112,觉得,6416,28,juede,
499,condition1,2,yiwei_unclear,104,跑，,25336,29,yiwei,
499,condition1,2,filler,908,拆,7904,30,filler,
499,condition1,3,filler,909,画,5384,31,filler,
499,condition1,3,juede_contrastive,14,看,12599,32,juede,
499,condition1,3,yiwei_contrastive,10,确定,14664,33,yiwei,
499,condition1,3,yiwei_contrastive,8,看,25968,34,yiwei,
499,condition1,3,yiwei_unclear,106,以为,13217,35,yiwei,
499,condition1,3,juede_contrastive,18,说,19495,36,juede,
499,condition1,3,yiwei_unclear,105,喜欢,40345,37,yiwei,
499,condition1,3,juede_unclear,116,想,7343,38,juede,
499,condition1,3,juede_unclear,119,觉得,4112,39,juede,
499,condition1,3,filler,902,盗,16503,40,filler,
499,condition1,4,juede_contrastive,11,选,12425,41,juede,
499,condition1,4,filler,903,待,22959,42,filler,
499,condition1,4,juede_unclear,115,想,7632,43,juede,
499,condition1,4,juede_unclear,117,看,9520,44,juede,
499,condition1,4,yiwei_unclear,108,认为,6952,45,yiwei,
499,condition1,4,yiwei_unclear,109,以为,5480,46,yiwei,
499,condition1,4,juede_contrastive,15,看,6312,47,juede,
499,condition1,4,yiwei_contrastive,6,说,9271,48,yiwei,
499,condition1,4,yiwei_contrastive,1,说,4569,49,yiwei,
499,condition1,4,filler,910,刻,15056,50,filler,
491,condition1,practice,practice_1,301,放,,0,NA,
491,condition1,practice,practice_2,302,打,,0,NA,
491,condition1,practice,practice_3,303,发,,0,NA,
491,condition1,practice,practice_4,304,闹,,0,NA,
491,condition1,0,yiwei_contrastive,4,当,11832,1,yiwei,
491,condition1,0,filler,910,刻,8785,2,filler,
491,condition1,0,yiwei_unclear,110,担心,53778,3,yiwei,
491,condition1,0,yiwei_unclear,104,看,18927,4,yiwei,
491,condition1,0,juede_unclear,111,觉得,7508,5,juede,
491,condition1,0,yiwei_contrastive,7,肯定,17293,6,yiwei,
491,condition1,0,juede_contrastive,11,就,6248,7,juede,
491,condition1,0,juede_contrastive,14,当然,13314,8,juede,
491,condition1,0,juede_unclear,116,看,11256,9,juede,
491,condition1,0,filler,904,拔,6840,10,filler,
491,condition1,1,yiwei_contrastive,8,绝对,16495,11,yiwei,
491,condition1,1,filler,903,待,6374,12,filler,
491,condition1,1,filler,906,点,7455,13,filler,
491,condition1,1,yiwei_contrastive,9,也,6811,14,yiwei,
491,condition1,1,yiwei_unclear,109,让,4904,15,yiwei,
491,condition1,1,yiwei_unclear,103,是,12429,16,yiwei,
491,condition1,1,juede_contrastive,18,害怕,15517,17,juede,
491,condition1,1,juede_unclear,115,觉得,9134,18,juede,
491,condition1,1,juede_contrastive,16,感觉,8648,19,juede,
491,condition1,1,juede_unclear,114,担心,14657,20,juede,
491,condition1,2,yiwei_unclear,108,认真,48692,21,yiwei,
491,condition1,2,filler,901,挠,11979,22,filler,
491,condition1,2,juede_contrastive,17,肯定,24492,23,juede,
491,condition1,2,yiwei_contrastive,3,其实,6900,24,yiwei,
491,condition1,2,juede_unclear,118,觉得,17928,25,juede,
491,condition1,2,juede_contrastive,12,买的,14247,26,juede,
491,condition1,2,filler,905,指,7422,27,filler,
491,condition1,2,juede_unclear,119,快看,11050,28,juede,
491,condition1,2,yiwei_unclear,105,其实,10044,29,yiwei,
491,condition1,2,yiwei_contrastive,6,知道,9510,30,yiwei,
491,condition1,3,yiwei_unclear,106,这样,13190,31,yiwei,
491,condition1,3,yiwei_contrastive,1,知道,10054,32,yiwei,
491,condition1,3,yiwei_contrastive,10,还当,7818,33,yiwei,
491,condition1,3,filler,908,拆,6251,34,filler,
491,condition1,3,filler,902,盗,6098,35,filler,
491,condition1,3,juede_contrastive,19,有点,9401,36,juede,
491,condition1,3,yiwei_unclear,102,发现,13378,37,yiwei,
491,condition1,3,juede_unclear,112,感觉,7188,38,juede,
491,condition1,3,juede_unclear,113,觉得,4486,39,juede,
491,condition1,3,juede_contrastive,15,以为,21441,40,juede,
491,condition1,4,juede_contrastive,13,看重,28584,41,juede,
491,condition1,4,juede_unclear,117,藏,6816,42,juede,
491,condition1,4,juede_contrastive,20,就当,12751,43,juede,
491,condition1,4,juede_unclear,120,以为,7923,44,juede,
491,condition1,4,filler,909,画,4799,45,filler,
491,condition1,4,yiwei_unclear,107,当,6406,46,yiwei,
491,condition1,4,yiwei_contrastive,2,估计,6521,47,yiwei,
491,condition1,4,filler,907,谈,4608,48,filler,
491,condition1,4,yiwei_contrastive,5,怕,10531,49,yiwei,
491,condition1,4,yiwei_unclear,101,以为,5947,50,yiwei,
462,condition1,practice,practice_1,301,放,,0,NA,
462,condition1,practice,practice_2,302,打,,0,NA,
462,condition1,practice,practice_3,303,生,,0,NA,
462,condition1,practice,practice_4,304,闹,,0,NA,
462,condition1,0,filler,909,画,7515,1,filler,
462,condition1,0,yiwei_unclear,106,还,20204,2,yiwei,
462,condition1,0,yiwei_contrastive,1,煎,14310,3,yiwei,
462,condition1,0,yiwei_contrastive,9,们,4379,4,yiwei,
462,condition1,0,filler,905,指,9876,5,filler,
462,condition1,0,juede_unclear,114,怕,23118,6,juede,
462,condition1,0,yiwei_unclear,103,就,22459,7,yiwei,
462,condition1,0,juede_contrastive,18,的,12769,8,juede,
462,condition1,0,juede_contrastive,17,就,8833,9,juede,
462,condition1,0,juede_unclear,111,觉得,11342,10,juede,
462,condition1,1,yiwei_unclear,107,说,9285,11,yiwei,
462,condition1,1,yiwei_contrastive,7,怕,24556,12,yiwei,
462,condition1,1,filler,906,点,5099,13,filler,
462,condition1,1,filler,904,拔,7771,14,filler,
462,condition1,1,juede_unclear,117,真,7171,15,juede,
462,condition1,1,juede_contrastive,20,应该,50998,16,juede,
462,condition1,1,yiwei_unclear,109,让,11624,17,yiwei,
462,condition1,1,juede_contrastive,19,觉得,9166,18,juede,
462,condition1,1,yiwei_contrastive,4,觉得,11209,19,yiwei,
462,condition1,1,juede_unclear,113,觉得,6537,20,juede,
462,condition1,2,juede_contrastive,12,住,5354,21,juede,
462,condition1,2,juede_unclear,115,相信,8386,22,juede,
462,condition1,2,juede_unclear,112,觉得,14087,23,juede,
462,condition1,2,filler,903,待,6509,24,filler,
462,condition1,2,yiwei_contrastive,5,知道,16287,25,yiwei,
462,condition1,2,yiwei_unclear,104,别动,73369,26,yiwei,
462,condition1,2,juede_contrastive,14,就,5937,27,juede,
462,condition1,2,filler,901,挠,6619,28,filler,
462,condition1,2,yiwei_contrastive,2,觉得,7529,29,yiwei,
462,condition1,2,yiwei_unclear,105,就,7620,30,yiwei,
462,condition1,3,juede_contrastive,11,吹走,35021,31,juede,
462,condition1,3,juede_contrastive,13,这,12888,32,juede,
462,condition1,3,yiwei_contrastive,10,也,6271,33,yiwei,
462,condition1,3,filler,902,盗,7262,34,filler,
462,condition1,3,yiwei_unclear,110,相信,14186,35,yiwei,
462,condition1,3,juede_unclear,120,让,51302,36,juede,
462,condition1,3,yiwei_contrastive,6,的,10652,37,yiwei,
462,condition1,3,yiwei_unclear,102,想,27676,38,yiwei,
462,condition1,3,filler,907,谈,3852,39,filler,
462,condition1,3,juede_unclear,116,遇到,10802,40,juede,
462,condition1,4,yiwei_contrastive,8,应该,5309,41,yiwei,
462,condition1,4,yiwei_unclear,101,觉得,23953,42,yiwei,
462,condition1,4,juede_contrastive,15,们,40607,43,juede,
462,condition1,4,juede_contrastive,16,的,5743,44,juede,
462,condition1,4,yiwei_unclear,108,离开,12199,45,yiwei,
462,condition1,4,juede_unclear,118,的,7525,46,juede,
462,condition1,4,filler,908,拆,6136,47,filler,
462,condition1,4,filler,910,刻,49875,48,filler,
462,condition1,4,yiwei_contrastive,3,觉得,27018,49,yiwei,
462,condition1,4,juede_unclear,119,抚摸,13635,50,juede,
498,condition1,practice,practice_1,301,放,,0,NA,
498,condition1,practice,practice_2,302,打,,0,NA,
498,condition1,practice,practice_3,303,发,,0,NA,
498,condition1,practice,practice_4,304,闹,,0,NA,
498,condition1,0,juede_contrastive,19,不,58177,1,juede,
498,condition1,0,filler,902,盗,4774,2,filler,
498,condition1,0,yiwei_contrastive,8,还,9431,3,yiwei,
498,condition1,0,filler,909,画,5151,4,filler,
498,condition1,0,juede_unclear,119,，,22438,5,juede,
498,condition1,0,yiwei_unclear,110,猜,12276,6,yiwei,
498,condition1,0,juede_contrastive,20,说,7884,7,juede,
498,condition1,0,juede_unclear,112,说,12893,8,juede,
498,condition1,0,yiwei_unclear,106,此,9295,9,yiwei,
498,condition1,0,yiwei_contrastive,10,也,6575,10,yiwei,
498,condition1,1,yiwei_contrastive,4,说,4535,11,yiwei,
498,condition1,1,juede_contrastive,16,觉得,6518,12,juede,
498,condition1,1,filler,901,挠,6760,13,filler,
498,condition1,1,filler,910,刻,7588,14,filler,
498,condition1,1,yiwei_unclear,101,说,9869,15,yiwei,
498,condition1,1,yiwei_contrastive,9,看,3431,16,yiwei,
498,condition1,1,juede_unclear,114,发现,9858,17,juede,
498,condition1,1,yiwei_unclear,105,喜欢,25868,18,yiwei,
498,condition1,1,juede_unclear,113,觉得,3946,19,juede,
498,condition1,1,juede_contrastive,13,看,20422,20,juede,
498,condition1,2,yiwei_unclear,109,说,5876,21,yiwei,
498,condition1,2,juede_unclear,116,发现,5702,22,juede,
498,condition1,2,yiwei_unclear,104,看,4302,23,yiwei,
498,condition1,2,juede_contrastive,15,看,7323,24,juede,
498,condition1,2,juede_contrastive,18,认为,8018,25,juede,
498,condition1,2,filler,907,谈,3531,26,filler,
498,condition1,2,juede_unclear,115,看,3599,27,juede,
498,condition1,2,yiwei_contrastive,6,说,6029,28,yiwei,
498,condition1,2,filler,905,指,6502,29,filler,
498,condition1,2,yiwei_contrastive,7,看,3576,30,yiwei,
498,condition1,3,yiwei_unclear,107,说,4909,31,yiwei,
498,condition1,3,yiwei_contrastive,5,看,5865,32,yiwei,
498,condition1,3,filler,904,拔,6981,33,filler,
498,condition1,3,yiwei_contrastive,1,说,3975,34,yiwei,
498,condition1,3,juede_contrastive,17,看,4327,35,juede,
498,condition1,3,filler,906,点,6682,36,filler,
498,condition1,3,juede_unclear,118,看,3874,37,juede,
498,condition1,3,juede_unclear,117,看,4950,38,juede,
498,condition1,3,yiwei_unclear,103,看,5248,39,yiwei,
498,condition1,3,juede_contrastive,12,看,3741,40,juede,
498,condition1,4,filler,903,待,4195,41,filler,
498,condition1,4,juede_unclear,120,留,86736,42,juede,
498,condition1,4,filler,908,拆,6172,43,filler,
498,condition1,4,juede_unclear,111,kan,3924,44,juede,
498,condition1,4,yiwei_unclear,102,说,4145,45,yiwei,
498,condition1,4,yiwei_contrastive,3,看,5320,46,yiwei,
498,condition1,4,yiwei_unclear,108,发现,16421,47,yiwei,
498,condition1,4,juede_contrastive,14,看,5817,48,juede,
498,condition1,4,juede_contrastive,11,还是,10604,49,juede,
498,condition1,4,yiwei_contrastive,2,看,4542,50,yiwei,
468,condition1,practice,practice_1,301,放,,0,NA,
468,condition1,practice,practice_2,302,打,,0,NA,
468,condition1,practice,practice_3,303,发,,0,NA,
468,condition1,practice,practice_4,304,闹,,0,NA,
468,condition1,0,filler,906,点,7649,1,filler,
468,condition1,0,filler,910,刻,7384,2,filler,
468,condition1,0,juede_contrastive,13,说的,42862,3,juede,
468,condition1,0,juede_contrastive,18,家的,10595,4,juede,
468,condition1,0,yiwei_unclear,106,是,12318,5,yiwei,
468,condition1,0,juede_unclear,112,说,7738,6,juede,
468,condition1,0,yiwei_contrastive,1,说,4862,7,yiwei,
468,condition1,0,yiwei_contrastive,10,知道,80441,8,yiwei,
468,condition1,0,yiwei_unclear,101,会说,13379,9,yiwei,
468,condition1,0,juede_unclear,111,觉得,6485,10,juede,
468,condition1,1,juede_unclear,113,都觉得,8381,11,juede,
468,condition1,1,yiwei_contrastive,9,也,6082,12,yiwei,
468,condition1,1,juede_contrastive,14,家,23250,13,juede,
468,condition1,1,juede_contrastive,19,长的,44969,14,juede,
468,condition1,1,juede_unclear,119,说,4444,15,juede,
468,condition1,1,filler,905,指,37640,16,filler,
468,condition1,1,yiwei_unclear,109,跟,18547,17,yiwei,
468,condition1,1,yiwei_unclear,110,看,208714,18,yiwei,
468,condition1,1,filler,909,画,58929,19,filler,
468,condition1,1,yiwei_contrastive,7,看见,18245,20,yiwei,
468,condition1,2,juede_contrastive,15,看,50654,21,juede,
468,condition1,2,juede_unclear,116,看见,7831,22,juede,
468,condition1,2,yiwei_contrastive,6,围巾,48425,23,yiwei,
468,condition1,2,juede_unclear,120,站,5970,24,juede,
468,condition1,2,filler,901,挠,10129,25,filler,
468,condition1,2,yiwei_unclear,105,看,19401,26,yiwei,
468,condition1,2,filler,903,待,5233,27,filler,
468,condition1,2,juede_contrastive,20,说,14523,28,juede,
468,condition1,2,yiwei_unclear,104,那个,54065,29,yiwei,
468,condition1,2,yiwei_contrastive,3,不,23829,30,yiwei,
468,condition1,3,filler,907,谈,4199,31,filler,
468,condition1,3,yiwei_contrastive,4,说,34749,32,yiwei,
468,condition1,3,yiwei_unclear,102,说,6199,33,yiwei,
468,condition1,3,juede_unclear,117,手机,7598,34,juede,
468,condition1,3,yiwei_contrastive,8,衣服,18619,35,yiwei,
468,condition1,3,filler,908,拆,3855,36,filler,
468,condition1,3,juede_contrastive,17,抓到的,14632,37,juede,
468,condition1,3,juede_contrastive,11,我觉得,6427,38,juede,
468,condition1,3,juede_unclear,115,觉得,37168,39,juede,
468,condition1,3,yiwei_unclear,107,嫌弃,11615,40,yiwei,
468,condition1,4,juede_contrastive,12,觉得,7366,41,juede,
468,condition1,4,yiwei_unclear,103,看见,13267,42,yiwei,
468,condition1,4,filler,904,拔,4632,43,filler,
468,condition1,4,juede_unclear,114,怕,11285,44,juede,
468,condition1,4,filler,902,盗,4416,45,filler,
468,condition1,4,yiwei_unclear,108,开车撞到人，那,95585,46,yiwei,
468,condition1,4,yiwei_contrastive,5,觉得,28596,47,yiwei,
468,condition1,4,juede_contrastive,16,的,11818,48,juede,
468,condition1,4,yiwei_contrastive,2,看,21917,49,yiwei,
468,condition1,4,juede_unclear,118,觉得,7848,50,juede,
467,condition1,practice,practice_1,301,放,,0,NA,
467,condition1,practice,practice_2,302,打,,0,NA,
467,condition1,practice,practice_3,303,发,,0,NA,
467,condition1,practice,practice_4,304,闹,,0,NA,
467,condition1,0,yiwei_contrastive,2,看,5516,1,yiwei,
467,condition1,0,filler,903,待,3932,2,filler,
467,condition1,0,yiwei_contrastive,8,看,5700,3,yiwei,
467,condition1,0,filler,907,谈,2700,4,filler,
467,condition1,0,juede_unclear,114,说,13951,5,juede,
467,condition1,0,juede_contrastive,18,说,3552,6,juede,
467,condition1,0,juede_contrastive,16,看,4117,7,juede,
467,condition1,0,yiwei_unclear,110,看,5133,8,yiwei,
467,condition1,0,yiwei_unclear,103,说,5431,9,yiwei,
467,condition1,0,juede_unclear,119,说,9750,10,juede,
467,condition1,1,juede_unclear,111,觉得,4354,11,juede,
467,condition1,1,yiwei_contrastive,6,看,3646,12,yiwei,
467,condition1,1,yiwei_unclear,104,看,3233,13,yiwei,
467,condition1,1,yiwei_unclear,109,说,2936,14,yiwei,
467,condition1,1,filler,910,刻,7417,15,filler,
467,condition1,1,juede_contrastive,20,看,3496,16,juede,
467,condition1,1,juede_contrastive,12,看,4516,17,juede,
467,condition1,1,juede_unclear,113,听,6967,18,juede,
467,condition1,1,filler,906,点,2800,19,filler,
467,condition1,1,yiwei_contrastive,3,看,5833,20,yiwei,
467,condition1,2,yiwei_unclear,105,说,10651,21,yiwei,
467,condition1,2,juede_unclear,112,觉得,4900,22,juede,
467,condition1,2,yiwei_contrastive,1,说,2583,23,yiwei,
467,condition1,2,filler,909,画,4050,24,filler,
467,condition1,2,juede_unclear,117,看,4883,25,juede,
467,condition1,2,juede_contrastive,13,看,2917,26,juede,
467,condition1,2,juede_contrastive,11,看,10117,27,juede,
467,condition1,2,yiwei_unclear,102,说,3233,28,yiwei,
467,condition1,2,filler,902,盗,8402,29,filler,
467,condition1,2,yiwei_contrastive,4,说,3231,30,yiwei,
467,condition1,3,juede_unclear,120,说,2566,31,juede,
467,condition1,3,juede_contrastive,17,看,2634,32,juede,
467,condition1,3,yiwei_contrastive,5,说,2983,33,yiwei,
467,condition1,3,yiwei_unclear,107,说,5267,34,yiwei,
467,condition1,3,juede_contrastive,19,觉得,9933,35,juede,
467,condition1,3,filler,901,挠,3419,36,filler,
467,condition1,3,yiwei_contrastive,10,看,2865,37,yiwei,
467,condition1,3,filler,905,指,3733,38,filler,
467,condition1,3,yiwei_unclear,106,说,3733,39,yiwei,
467,condition1,3,juede_unclear,115,看,2753,40,juede,
467,condition1,4,filler,908,拆,2750,41,filler,
467,condition1,4,yiwei_unclear,101,说,2697,42,yiwei,
467,condition1,4,yiwei_contrastive,7,看,2984,43,yiwei,
467,condition1,4,yiwei_unclear,108,说,3216,44,yiwei,
467,condition1,4,juede_contrastive,14,看,3683,45,juede,
467,condition1,4,juede_contrastive,15,看,3484,46,juede,
467,condition1,4,juede_unclear,116,认,10399,47,juede,
467,condition1,4,yiwei_contrastive,9,看,4917,48,yiwei,
467,condition1,4,juede_unclear,118,看,4337,49,juede,
467,condition1,4,filler,904,拔,6134,50,filler,
445,condition1,practice,practice_1,301,放,,0,NA,
445,condition1,practice,practice_2,302,側,,0,NA,
445,condition1,practice,practice_3,303,發,,0,NA,
445,condition1,practice,practice_4,304,鬧,,0,NA,
445,condition1,0,juede_unclear,117,找,55586,1,juede,
445,condition1,0,yiwei_contrastive,10,才,14880,2,yiwei,
445,condition1,0,filler,906,點,3940,3,filler,
445,condition1,0,yiwei_unclear,110,說,7426,4,yiwei,
445,condition1,0,juede_unclear,118,看,4165,5,juede,
445,condition1,0,yiwei_contrastive,3,就,3669,6,yiwei,
445,condition1,0,juede_contrastive,12,看,4024,7,juede,
445,condition1,0,filler,901,挠,17069,8,filler,
445,condition1,0,juede_contrastive,16,的,5011,9,juede,
445,condition1,0,yiwei_unclear,108,看,9121,10,yiwei,
445,condition1,1,juede_unclear,116,說,7092,11,juede,
445,condition1,1,yiwei_unclear,105,愛,13835,12,yiwei,
445,condition1,1,yiwei_contrastive,2,看,7227,13,yiwei,
445,condition1,1,juede_contrastive,13,說,12187,14,juede,
445,condition1,1,filler,905,比,8719,15,filler,
445,condition1,1,juede_unclear,113,說,3886,16,juede,
445,condition1,1,yiwei_unclear,101,說,4667,17,yiwei,
445,condition1,1,filler,909,畫,8502,18,filler,
445,condition1,1,juede_contrastive,15,看,9125,19,juede,
445,condition1,1,yiwei_contrastive,5,跟,5335,20,yiwei,
445,condition1,2,filler,904,揠,27116,21,filler,
445,condition1,2,juede_unclear,111,認為,16817,22,juede,
445,condition1,2,juede_unclear,120,在,12537,23,juede,
445,condition1,2,juede_contrastive,11,看,8358,24,juede,
445,condition1,2,filler,907,談,3372,25,filler,
445,condition1,2,yiwei_unclear,103,說,25282,26,yiwei,
445,condition1,2,juede_contrastive,18,說,5462,27,juede,
445,condition1,2,yiwei_contrastive,6,看,22251,28,yiwei,
445,condition1,2,yiwei_unclear,107,說,7268,29,yiwei,
445,condition1,2,yiwei_contrastive,7,說,3911,30,yiwei,
445,condition1,3,filler,903,待,7535,31,filler,
445,condition1,3,juede_contrastive,17,說,3681,32,juede,
445,condition1,3,filler,910,滑,10584,33,filler,
445,condition1,3,juede_contrastive,14,說,2918,34,juede,
445,condition1,3,yiwei_contrastive,4,看,3478,35,yiwei,
445,condition1,3,juede_unclear,115,說,2175,36,juede,
445,condition1,3,yiwei_contrastive,8,說,2361,37,yiwei,
445,condition1,3,yiwei_unclear,109,說,4901,38,yiwei,
445,condition1,3,juede_unclear,112,說,2390,39,juede,
445,condition1,3,yiwei_unclear,106,說,6980,40,yiwei,
445,condition1,4,juede_contrastive,20,看,5327,41,juede,
445,condition1,4,yiwei_contrastive,1,說,3574,42,yiwei,
445,condition1,4,yiwei_contrastive,9,說,2806,43,yiwei,
445,condition1,4,juede_unclear,114,看,4857,44,juede,
445,condition1,4,yiwei_unclear,102,說,2001,45,yiwei,
445,condition1,4,juede_unclear,119,說,2395,46,juede,
445,condition1,4,filler,908,拆,9024,47,filler,
445,condition1,4,juede_contrastive,19,長,4433,48,juede,
445,condition1,4,filler,902,盗,22146,49,filler,
445,condition1,4,yiwei_unclear,104,看,5678,50,yiwei,
487,condition1,practice,practice_1,301,放,,0,NA,
487,condition1,practice,practice_2,302,打,,0,NA,
487,condition1,practice,practice_3,303,發,,0,NA,
487,condition1,practice,practice_4,304,鬧,,0,NA,
487,condition1,0,juede_unclear,113,打,11968,1,juede,
487,condition1,0,juede_contrastive,19,是,20311,2,juede,
487,condition1,0,filler,905,比,8600,3,filler,
487,condition1,0,juede_contrastive,13,不,31792,4,juede,
487,condition1,0,juede_unclear,117,放,27904,5,juede,
487,condition1,0,yiwei_contrastive,10,還,32281,6,yiwei,
487,condition1,0,yiwei_contrastive,7,不,95151,7,yiwei,
487,condition1,0,yiwei_unclear,107,當,5932,8,yiwei,
487,condition1,0,filler,909,畫,6020,9,filler,
487,condition1,0,yiwei_unclear,104,國,59592,10,yiwei,
487,condition1,1,yiwei_contrastive,3,就,9352,11,yiwei,
487,condition1,1,juede_contrastive,15,看,36952,12,juede,
487,condition1,1,filler,906,點,9872,13,filler,
487,condition1,1,juede_unclear,112,覺得,30676,14,juede,
487,condition1,1,juede_contrastive,20,看,6596,15,juede,
487,condition1,1,filler,902,盜,6040,16,filler,
487,condition1,1,yiwei_unclear,102,看,16004,17,yiwei,
487,condition1,1,yiwei_contrastive,6,的,7260,18,yiwei,
487,condition1,1,juede_unclear,119,瞧,9184,19,juede,
487,condition1,1,yiwei_unclear,106,剩,78280,20,yiwei,
487,condition1,2,yiwei_contrastive,2,在,9616,21,yiwei,
487,condition1,2,yiwei_unclear,108,答應,21660,22,yiwei,
487,condition1,2,juede_unclear,118,覺得,19180,23,juede,
487,condition1,2,yiwei_unclear,109,跟,25085,24,yiwei,
487,condition1,2,juede_contrastive,18,說,20143,25,juede,
487,condition1,2,filler,908,拆,4293,26,filler,
487,condition1,2,yiwei_contrastive,4,聽說,12015,27,yiwei,
487,condition1,2,juede_contrastive,14,依舊,23092,28,juede,
487,condition1,2,juede_unclear,120,覺得,9968,29,juede,
487,condition1,2,filler,910,刻,23101,30,filler,
487,condition1,3,juede_contrastive,11,覺得,11044,31,juede,
487,condition1,3,filler,903,待,6199,32,filler,
487,condition1,3,juede_unclear,114,認為,39312,33,juede,
487,condition1,3,yiwei_unclear,103,以為,27293,34,yiwei,
487,condition1,3,juede_contrastive,12,覺得,6199,35,juede,
487,condition1,3,yiwei_contrastive,8,認為,10856,36,yiwei,
487,condition1,3,filler,901,撓,17764,37,filler,
487,condition1,3,yiwei_contrastive,1,說,6768,38,yiwei,
487,condition1,3,juede_unclear,111,覺得,5872,39,juede,
487,condition1,3,yiwei_unclear,105,玩的,47128,40,yiwei,
487,condition1,4,filler,904,揠,7100,41,filler,
487,condition1,4,yiwei_unclear,110,說,15576,42,yiwei,
487,condition1,4,yiwei_contrastive,9,認為,7248,43,yiwei,
487,condition1,4,yiwei_unclear,101,會認為,31323,44,yiwei,
487,condition1,4,yiwei_contrastive,5,不知道,20948,45,yiwei,
487,condition1,4,filler,907,談,3411,46,filler,
487,condition1,4,juede_unclear,115,覺得,7353,47,juede,
487,condition1,4,juede_unclear,116,化作灰,27135,48,juede,
487,condition1,4,juede_contrastive,16,有的,13520,49,juede,
487,condition1,4,juede_contrastive,17,以為,7575,50,juede,
501,condition1,practice,practice_1,301,要,,0,NA,
501,condition1,practice,practice_2,302,打,,0,NA,
501,condition1,practice,practice_3,303,发,,0,NA,
501,condition1,practice,practice_4,304,闹,,0,NA,
501,condition1,0,juede_unclear,117,看,12574,1,juede,
501,condition1,0,yiwei_contrastive,5,猜,7689,2,yiwei,
501,condition1,0,filler,910,刻,9293,3,filler,
501,condition1,0,juede_contrastive,16,看,3503,4,juede,
501,condition1,0,filler,907,谈,3841,5,filler,
501,condition1,0,juede_unclear,120,跟,14374,6,juede,
501,condition1,0,yiwei_unclear,107,说,5089,7,yiwei,
501,condition1,0,yiwei_contrastive,9,看,3670,8,yiwei,
501,condition1,0,yiwei_unclear,103,看,5572,9,yiwei,
501,condition1,0,juede_contrastive,14,看,3739,10,juede,
501,condition1,1,yiwei_contrastive,1,说,6994,11,yiwei,
501,condition1,1,juede_contrastive,20,瞧,14711,12,juede,
501,condition1,1,yiwei_unclear,106,说,8275,13,yiwei,
501,condition1,1,filler,902,盗,5472,14,filler,
501,condition1,1,juede_unclear,115,看,11150,15,juede,
501,condition1,1,juede_contrastive,18,说,9888,16,juede,
501,condition1,1,filler,901,挠,5105,17,filler,
501,condition1,1,yiwei_contrastive,4,猜,4409,18,yiwei,
501,condition1,1,yiwei_unclear,102,说,5398,19,yiwei,
501,condition1,1,juede_unclear,112,说,14752,20,juede,
501,condition1,2,filler,904,拔,5696,21,filler,
501,condition1,2,yiwei_unclear,110,猜,4502,22,yiwei,
501,condition1,2,juede_unclear,114,猜,18868,23,juede,
501,condition1,2,juede_unclear,118,猜,3471,24,juede,
501,condition1,2,filler,905,指,4792,25,filler,
501,condition1,2,yiwei_unclear,105,看,4093,26,yiwei,
501,condition1,2,juede_contrastive,17,看,4560,27,juede,
501,condition1,2,yiwei_contrastive,6,猜,2666,28,yiwei,
501,condition1,2,juede_contrastive,15,看,3829,29,juede,
501,condition1,2,yiwei_contrastive,2,猜,3053,30,yiwei,
501,condition1,3,juede_contrastive,13,看,4794,31,juede,
501,condition1,3,yiwei_unclear,101,猜,12494,32,yiwei,
501,condition1,3,yiwei_unclear,104,看,4812,33,yiwei,
501,condition1,3,yiwei_contrastive,10,猜,4485,34,yiwei,
501,condition1,3,yiwei_contrastive,8,看,3207,35,yiwei,
501,condition1,3,juede_unclear,113,说,3071,36,juede,
501,condition1,3,filler,908,拆,3021,37,filler,
501,condition1,3,juede_unclear,111,看,3962,38,juede,
501,condition1,3,juede_contrastive,11,瞧,6161,39,juede,
501,condition1,3,filler,909,画,4800,40,filler,
501,condition1,4,yiwei_contrastive,3,看,10787,41,yiwei,
501,condition1,4,filler,903,待,6363,42,filler,
501,condition1,4,filler,906,点,3759,43,filler,
501,condition1,4,juede_contrastive,19,说,20089,44,juede,
501,condition1,4,juede_unclear,119,说,2935,45,juede,
501,condition1,4,yiwei_unclear,108,说,4413,46,yiwei,
501,condition1,4,juede_contrastive,12,看,2996,47,juede,
501,condition1,4,juede_unclear,116,猜,4131,48,juede,
501,condition1,4,yiwei_unclear,109,看,4486,49,yiwei,
501,condition1,4,yiwei_contrastive,7,猜,3464,50,yiwei,
432,condition1,practice,practice_1,301,放,,0,NA,
432,condition1,practice,practice_2,302,打,,0,NA,
432,condition1,practice,practice_3,303,发,,0,NA,
432,condition1,practice,practice_4,304,闹,,0,NA,
432,condition1,0,yiwei_unclear,101,怪,12862,1,yiwei,
432,condition1,0,filler,905,指,7402,2,filler,
432,condition1,0,yiwei_contrastive,6,这个地方只能放名词吧？,72334,3,yiwei,
432,condition1,0,filler,902,盗,7483,4,filler,
432,condition1,0,yiwei_contrastive,5,猜,16669,5,yiwei,
432,condition1,0,juede_contrastive,12,觉得,8742,6,juede,
432,condition1,0,juede_contrastive,14,想,287379,7,juede,
432,condition1,0,yiwei_unclear,110,想,9881,8,yiwei,
432,condition1,0,juede_unclear,114,不像,24591,9,juede,
432,condition1,0,juede_unclear,118,搜索,17959,10,juede,
432,condition1,1,juede_contrastive,17,以为,13925,11,juede,
432,condition1,1,yiwei_unclear,108,觉得,22826,12,yiwei,
432,condition1,1,yiwei_unclear,107,以为,4578,13,yiwei,
432,condition1,1,filler,910,刻,6786,14,filler,
432,condition1,1,filler,906,点,4053,15,filler,
432,condition1,1,juede_unclear,119,寻思,11617,16,juede,
432,condition1,1,juede_unclear,113,觉得,3514,17,juede,
432,condition1,1,juede_contrastive,11,觉得,5618,18,juede,
432,condition1,1,yiwei_contrastive,9,想,3870,19,yiwei,
432,condition1,1,yiwei_contrastive,2,以为,3953,20,yiwei,
432,condition1,2,filler,908,拆,3386,21,filler,
432,condition1,2,yiwei_contrastive,1,说,6434,22,yiwei,
432,condition1,2,juede_contrastive,19,觉得,8093,23,juede,
432,condition1,2,juede_unclear,111,觉得,5793,24,juede,
432,condition1,2,yiwei_unclear,102,以为,10141,25,yiwei,
432,condition1,2,yiwei_unclear,106,瞥见,16053,26,yiwei,
432,condition1,2,juede_contrastive,18,幻想,7340,27,juede,
432,condition1,2,juede_unclear,115,预感,8339,28,juede,
432,condition1,2,filler,903,待,4236,29,filler,
432,condition1,2,yiwei_contrastive,7,怕,13426,30,yiwei,
432,condition1,3,filler,904,揠,9382,31,filler,
432,condition1,3,filler,901,挠,4672,32,filler,
432,condition1,3,yiwei_unclear,104,别让,22528,33,yiwei,
432,condition1,3,juede_unclear,120,臆想,9666,34,juede,
432,condition1,3,juede_contrastive,13,摧毁,17337,35,juede,
432,condition1,3,yiwei_unclear,109,当,12798,36,yiwei,
432,condition1,3,yiwei_contrastive,8,寻思,10745,37,yiwei,
432,condition1,3,juede_contrastive,20,以为,31739,38,juede,
432,condition1,3,juede_unclear,117,躲,11663,39,juede,
432,condition1,3,yiwei_contrastive,3,觉得,42916,40,yiwei,
432,condition1,4,yiwei_contrastive,4,想,5953,41,yiwei,
432,condition1,4,yiwei_contrastive,10,以为,36865,42,yiwei,
432,condition1,4,yiwei_unclear,103,觉得,4831,43,yiwei,
432,condition1,4,juede_unclear,116,想,5252,44,juede,
432,condition1,4,juede_contrastive,16,记得,4994,45,juede,
432,condition1,4,filler,909,画,5154,46,filler,
432,condition1,4,yiwei_unclear,105,以为,10330,47,yiwei,
432,condition1,4,filler,907,谈,4201,48,filler,
432,condition1,4,juede_contrastive,15,寻思,17467,49,juede,
432,condition1,4,juede_unclear,112,起誓,29943,50,juede,
508,condition1,practice,practice_1,301,放,,0,NA,
508,condition1,practice,practice_2,302,打,,0,NA,
508,condition1,practice,practice_3,303,发,,0,NA,
508,condition1,practice,practice_4,304,闹,,0,NA,
508,condition1,0,yiwei_contrastive,7,猜,14449,1,yiwei,
508,condition1,0,yiwei_unclear,101,以为,8079,2,yiwei,
508,condition1,0,juede_unclear,119,说,8845,3,juede,
508,condition1,0,juede_contrastive,13,说,8447,4,juede,
508,condition1,0,yiwei_contrastive,2,以为,4783,5,yiwei,
508,condition1,0,juede_contrastive,18,讲,10686,6,juede,
508,condition1,0,juede_unclear,118,觉得,6227,7,juede,
508,condition1,0,yiwei_unclear,107,以为,11398,8,yiwei,
508,condition1,0,filler,906,点,4636,9,filler,
508,condition1,0,filler,907,谈,3944,10,filler,
508,condition1,1,juede_contrastive,20,说猜,12882,11,juede,
508,condition1,1,filler,902,盗,5806,12,filler,
508,condition1,1,juede_unclear,120,觉得,12287,13,juede,
508,condition1,1,juede_unclear,111,觉得,5623,14,juede,
508,condition1,1,yiwei_unclear,102,以为,5355,15,yiwei,
508,condition1,1,juede_contrastive,16,觉得,4309,16,juede,
508,condition1,1,yiwei_unclear,106,以为,5823,17,yiwei,
508,condition1,1,yiwei_contrastive,5,以为,4627,18,yiwei,
508,condition1,1,filler,908,拆,4542,19,filler,
508,condition1,1,yiwei_contrastive,1,说,3653,20,yiwei,
508,condition1,2,filler,909,画,5343,21,filler,
508,condition1,2,yiwei_unclear,104,提醒,14867,22,yiwei,
508,condition1,2,juede_unclear,114,以为,15985,23,juede,
508,condition1,2,juede_unclear,115,以为,4374,24,juede,
508,condition1,2,yiwei_unclear,108,觉得,16909,25,yiwei,
508,condition1,2,yiwei_contrastive,6,觉得,3960,26,yiwei,
508,condition1,2,juede_contrastive,19,觉得,4225,27,juede,
508,condition1,2,juede_contrastive,14,记得,5448,28,juede,
508,condition1,2,filler,904,揠,9681,29,filler,
508,condition1,2,yiwei_contrastive,10,以为,5770,30,yiwei,
508,condition1,3,juede_contrastive,15,说,15338,31,juede,
508,condition1,3,yiwei_unclear,105,猜,8369,32,yiwei,
508,condition1,3,filler,903,待,4719,33,filler,
508,condition1,3,yiwei_contrastive,4,以为,4337,34,yiwei,
508,condition1,3,juede_unclear,116,打死,37291,35,juede,
508,condition1,3,yiwei_contrastive,3,通知,99410,36,yiwei,
508,condition1,3,filler,905,指,4677,37,filler,
508,condition1,3,yiwei_unclear,103,以为,4446,38,yiwei,
508,condition1,3,juede_unclear,112,以为,12391,39,juede,
508,condition1,3,juede_contrastive,11,觉得,4635,40,juede,
508,condition1,4,juede_unclear,117,以为,6440,41,juede,
508,condition1,4,yiwei_contrastive,9,以为,5047,42,yiwei,
508,condition1,4,juede_contrastive,12,觉得,4941,43,juede,
508,condition1,4,yiwei_unclear,109,逼,12852,44,yiwei,
508,condition1,4,filler,910,刻,6144,45,filler,
508,condition1,4,juede_unclear,113,觉得,3939,46,juede,
508,condition1,4,yiwei_unclear,110,因以为,14045,47,yiwei,
508,condition1,4,yiwei_contrastive,8,觉得,9543,48,yiwei,
508,condition1,4,filler,901,挠,3798,49,filler,
508,condition1,4,juede_contrastive,17,以为,6325,50,juede,
454,condition1,practice,practice_1,301,放,,0,NA,
454,condition1,practice,practice_2,302,打,,0,NA,
454,condition1,practice,practice_3,303,发,,0,NA,
454,condition1,practice,practice_4,304,闹,,0,NA,
454,condition1,0,juede_contrastive,14,还,26601,1,juede,
454,condition1,0,yiwei_contrastive,9,还,6291,2,yiwei,
454,condition1,0,juede_unclear,112,认为,32422,3,juede,
454,condition1,0,filler,905,指,10805,4,filler,
454,condition1,0,yiwei_unclear,105,以为,22408,5,yiwei,
454,condition1,0,juede_contrastive,18,想象,19635,6,juede,
454,condition1,0,yiwei_contrastive,1,认为,16909,7,yiwei,
454,condition1,0,filler,904,拔,13764,8,filler,
454,condition1,0,yiwei_unclear,103,以为,24601,9,yiwei,
454,condition1,0,juede_unclear,115,以为,11410,10,juede,
454,condition1,1,yiwei_contrastive,10,还,13558,11,yiwei,
454,condition1,1,yiwei_contrastive,2,以为,9926,12,yiwei,
454,condition1,1,filler,910,刻,21952,13,filler,
454,condition1,1,filler,906,点,9193,14,filler,
454,condition1,1,juede_contrastive,16,以为,16506,15,juede,
454,condition1,1,yiwei_unclear,106,想象,19024,16,yiwei,
454,condition1,1,juede_contrastive,11,还是,8333,17,juede,
454,condition1,1,juede_unclear,114,以为,21310,18,juede,
454,condition1,1,yiwei_unclear,107,以为,10260,19,yiwei,
454,condition1,1,juede_unclear,111,认为,6901,20,juede,
454,condition1,2,filler,903,待,5991,21,filler,
454,condition1,2,juede_unclear,120,以为,18905,22,juede,
454,condition1,2,yiwei_contrastive,4,以为,10453,23,yiwei,
454,condition1,2,yiwei_unclear,108,承担,45866,24,yiwei,
454,condition1,2,juede_contrastive,17,认为,23561,25,juede,
454,condition1,2,yiwei_unclear,102,想象,15936,26,yiwei,
454,condition1,2,yiwei_contrastive,8,以为,25051,27,yiwei,
454,condition1,2,juede_unclear,117,放,12582,28,juede,
454,condition1,2,juede_contrastive,13,以为,10890,29,juede,
454,condition1,2,filler,902,盗,11875,30,filler,
454,condition1,3,filler,909,画,6423,31,filler,
454,condition1,3,juede_unclear,119,以为,82869,32,juede,
454,condition1,3,yiwei_unclear,110,认为,10444,33,yiwei,
454,condition1,3,juede_unclear,113,认为,6102,34,juede,
454,condition1,3,filler,908,拆,5395,35,filler,
454,condition1,3,yiwei_contrastive,5,以为,10858,36,yiwei,
454,condition1,3,yiwei_contrastive,7,认为,20802,37,yiwei,
454,condition1,3,yiwei_unclear,101,认为,7139,38,yiwei,
454,condition1,3,juede_contrastive,20,以为,13551,39,juede,
454,condition1,3,juede_contrastive,15,想象,13424,40,juede,
454,condition1,4,juede_unclear,118,认为,8789,41,juede,
454,condition1,4,yiwei_contrastive,3,认为,16145,42,yiwei,
454,condition1,4,juede_contrastive,12,想象,13113,43,juede,
454,condition1,4,yiwei_contrastive,6,以为,6017,44,yiwei,
454,condition1,4,yiwei_unclear,104,看,28664,45,yiwei,
454,condition1,4,juede_contrastive,19,是,7932,46,juede,
454,condition1,4,juede_unclear,116,不认识,12679,47,juede,
454,condition1,4,filler,901,挠,8180,48,filler,
454,condition1,4,filler,907,谈,4475,49,filler,
454,condition1,4,yiwei_unclear,109,以为,6022,50,yiwei,
517,condition1,practice,practice_1,301,放,,0,NA,
517,condition1,practice,practice_2,302,打,,0,NA,
517,condition1,practice,practice_3,303,发,,0,NA,
517,condition1,practice,practice_4,304,闹,,0,NA,
517,condition1,0,yiwei_unclear,104,让,18298,1,yiwei,
517,condition1,0,juede_contrastive,20,看,20892,2,juede,
517,condition1,0,juede_unclear,112,说,21163,3,juede,
517,condition1,0,yiwei_contrastive,5,发现,18626,4,yiwei,
517,condition1,0,yiwei_contrastive,1,知道,15232,5,yiwei,
517,condition1,0,filler,904,拔,5099,6,filler,
517,condition1,0,yiwei_unclear,108,犯错,19999,7,yiwei,
517,condition1,0,juede_contrastive,15,看,8521,8,juede,
517,condition1,0,juede_unclear,116,见过,20647,9,juede,
517,condition1,0,filler,903,待,5711,10,filler,
517,condition1,1,filler,905,指,6181,11,filler,
517,condition1,1,juede_contrastive,16,选的,101931,12,juede,
517,condition1,1,juede_unclear,120,站在,6239,13,juede,
517,condition1,1,yiwei_unclear,102,喊道,13890,14,yiwei,
517,condition1,1,yiwei_unclear,110,听说,13483,15,yiwei,
517,condition1,1,juede_contrastive,11,瞧,18361,16,juede,
517,condition1,1,juede_unclear,111,认为,7908,17,juede,
517,condition1,1,yiwei_contrastive,9,相信,4184,18,yiwei,
517,condition1,1,filler,907,谈,3635,19,filler,
517,condition1,1,yiwei_contrastive,8,确认,4116,20,yiwei,
517,condition1,2,filler,906,点,4663,21,filler,
517,condition1,2,yiwei_unclear,101,以为,8828,22,yiwei,
517,condition1,2,yiwei_contrastive,10,确定,31287,23,yiwei,
517,condition1,2,filler,908,拆,4068,24,filler,
517,condition1,2,yiwei_contrastive,4,写下,60086,25,yiwei,
517,condition1,2,juede_unclear,113,觉得,4790,26,juede,
517,condition1,2,juede_contrastive,14,记得,6128,27,juede,
517,condition1,2,juede_unclear,118,猜测,17343,28,juede,
517,condition1,2,yiwei_unclear,103,说,91472,29,yiwei,
517,condition1,2,juede_contrastive,19,跳起来,123078,30,juede,
517,condition1,3,juede_unclear,115,知道,9860,31,juede,
517,condition1,3,filler,902,盗,4537,32,filler,
517,condition1,3,yiwei_contrastive,7,确认,11577,33,yiwei,
517,condition1,3,yiwei_unclear,109,允许,16113,34,yiwei,
517,condition1,3,juede_unclear,119,抱着,9701,35,juede,
517,condition1,3,yiwei_unclear,107,以为,7523,36,yiwei,
517,condition1,3,yiwei_contrastive,2,以为,19082,37,yiwei,
517,condition1,3,filler,910,刻,9651,38,filler,
517,condition1,3,juede_contrastive,18,听说,24070,39,juede,
517,condition1,3,juede_contrastive,17,看,14251,40,juede,
517,condition1,4,juede_contrastive,13,看,8995,41,juede,
517,condition1,4,yiwei_contrastive,6,猜,7215,42,yiwei,
517,condition1,4,filler,909,画,4082,43,filler,
517,condition1,4,yiwei_contrastive,3,想,6356,44,yiwei,
517,condition1,4,filler,901,挠,4425,45,filler,
517,condition1,4,yiwei_unclear,106,记得,22638,46,yiwei,
517,condition1,4,yiwei_unclear,105,想,19870,47,yiwei,
517,condition1,4,juede_unclear,117,放,4285,48,juede,
517,condition1,4,juede_unclear,114,看,17972,49,juede,
517,condition1,4,juede_contrastive,12,觉得,4730,50,juede,
523,condition1,practice,practice_1,301,放,,0,NA,
523,condition1,practice,practice_2,302,打,,0,NA,
523,condition1,practice,practice_3,303,耍,,0,NA,
523,condition1,practice,practice_4,304,闹,,0,NA,
523,condition1,0,yiwei_contrastive,10,看,30302,1,yiwei,
523,condition1,0,juede_contrastive,14,觉得,64892,2,juede,
523,condition1,0,filler,901,挠,5263,3,filler,
523,condition1,0,yiwei_unclear,108,认为,23549,4,yiwei,
523,condition1,0,yiwei_unclear,109,看着,11650,5,yiwei,
523,condition1,0,yiwei_contrastive,1,觉得,56301,6,yiwei,
523,condition1,0,juede_unclear,120,站,7421,7,juede,
523,condition1,0,filler,902,盗,4398,8,filler,
523,condition1,0,juede_unclear,111,觉得,4128,9,juede,
523,condition1,0,juede_contrastive,16,觉得,12686,10,juede,
523,condition1,1,yiwei_contrastive,2,看,4069,11,yiwei,
523,condition1,1,filler,909,画,4105,12,filler,
523,condition1,1,yiwei_unclear,104,快看,129463,13,yiwei,
523,condition1,1,yiwei_unclear,106,看见,20934,14,yiwei,
523,condition1,1,yiwei_contrastive,6,以为,11337,15,yiwei,
523,condition1,1,juede_contrastive,11,看,5544,16,juede,
523,condition1,1,juede_unclear,117,以为,9469,17,juede,
523,condition1,1,juede_contrastive,19,觉得,14019,18,juede,
523,condition1,1,filler,906,点,4262,19,filler,
523,condition1,1,juede_unclear,115,觉得,5947,20,juede,
523,condition1,2,yiwei_unclear,102,看见,9739,21,yiwei,
523,condition1,2,juede_contrastive,20,住的,21016,22,juede,
523,condition1,2,yiwei_contrastive,8,觉得,11469,23,yiwei,
523,condition1,2,juede_unclear,112,发现,4033,24,juede,
523,condition1,2,yiwei_unclear,107,觉得,7239,25,yiwei,
523,condition1,2,filler,907,谈,3884,26,filler,
523,condition1,2,filler,904,揠,16817,27,filler,
523,condition1,2,juede_contrastive,18,怕,17019,28,juede,
523,condition1,2,yiwei_contrastive,4,觉得,3635,29,yiwei,
523,condition1,2,juede_unclear,116,觉得,10434,30,juede,
523,condition1,3,yiwei_unclear,103,以为,6085,31,yiwei,
523,condition1,3,filler,908,拆,3550,32,filler,
523,condition1,3,yiwei_contrastive,3,想,10840,33,yiwei,
523,condition1,3,filler,903,待,4098,34,filler,
523,condition1,3,juede_unclear,114,怕,29154,35,juede,
523,condition1,3,yiwei_contrastive,5,感觉,6852,36,yiwei,
523,condition1,3,juede_contrastive,13,喜欢的,40630,37,juede,
523,condition1,3,yiwei_unclear,105,以为,13916,38,yiwei,
523,condition1,3,juede_contrastive,17,看,41280,39,juede,
523,condition1,3,juede_unclear,119,觉得,5636,40,juede,
523,condition1,4,juede_contrastive,15,看,16721,41,juede,
523,condition1,4,juede_contrastive,12,觉得,6143,42,juede,
523,condition1,4,filler,910,刻,5990,43,filler,
523,condition1,4,yiwei_contrastive,7,觉得,9349,44,yiwei,
523,condition1,4,juede_unclear,113,认为,4271,45,juede,
523,condition1,4,yiwei_unclear,110,感觉,8364,46,yiwei,
523,condition1,4,yiwei_contrastive,9,觉得,4883,47,yiwei,
523,condition1,4,juede_unclear,118,觉得,5114,48,juede,
523,condition1,4,yiwei_unclear,101,以为,3961,49,yiwei,
523,condition1,4,filler,905,指,5550,50,filler,
448,condition1,practice,practice_1,301,放,,0,NA,
448,condition1,practice,practice_2,302,打,,0,NA,
448,condition1,practice,practice_3,303,鬧,,0,NA,
448,condition1,practice,practice_4,304,耍,,0,NA,
448,condition1,0,filler,901,撓,5678,1,filler,
448,condition1,0,filler,908,拆,2935,2,filler,
448,condition1,0,yiwei_unclear,104,注意,13334,3,yiwei,
448,condition1,0,yiwei_contrastive,1,說,9746,4,yiwei,
448,condition1,0,juede_contrastive,15,說,42910,5,juede,
448,condition1,0,juede_unclear,116,想,5951,6,juede,
448,condition1,0,yiwei_contrastive,10,想,37130,7,yiwei,
448,condition1,0,yiwei_unclear,106,留,10745,8,yiwei,
448,condition1,0,juede_unclear,119,認為,7835,9,juede,
448,condition1,0,juede_contrastive,16,認為,6735,10,juede,
448,condition1,1,juede_contrastive,19,長,11446,11,juede,
448,condition1,1,juede_contrastive,12,建的,5525,12,juede,
448,condition1,1,juede_unclear,118,認為,3805,13,juede,
448,condition1,1,yiwei_unclear,102,認為,3684,14,yiwei,
448,condition1,1,yiwei_contrastive,5,想,5836,15,yiwei,
448,condition1,1,yiwei_unclear,105,認為,15354,16,yiwei,
448,condition1,1,yiwei_contrastive,6,說,5596,17,yiwei,
448,condition1,1,juede_unclear,120,站,4611,18,juede,
448,condition1,1,filler,906,點,3259,19,filler,
448,condition1,1,filler,910,刻,5369,20,filler,
448,condition1,2,juede_contrastive,17,幻想,4965,21,juede,
448,condition1,2,juede_unclear,112,強調,11152,22,juede,
448,condition1,2,yiwei_contrastive,2,認為,4097,23,yiwei,
448,condition1,2,yiwei_unclear,103,想,5941,24,yiwei,
448,condition1,2,yiwei_unclear,107,說,18089,25,yiwei,
448,condition1,2,yiwei_contrastive,4,認為,2902,26,yiwei,
448,condition1,2,juede_contrastive,13,買的,7584,27,juede,
448,condition1,2,filler,909,畫,4210,28,filler,
448,condition1,2,juede_unclear,111,認為,3117,29,juede,
448,condition1,2,filler,902,盜,5464,30,filler,
448,condition1,3,juede_contrastive,18,幻想,4320,31,juede,
448,condition1,3,yiwei_contrastive,8,認為,3529,32,yiwei,
448,condition1,3,juede_unclear,113,認為,2575,33,juede,
448,condition1,3,yiwei_unclear,101,認為,4763,34,yiwei,
448,condition1,3,filler,903,待,3447,35,filler,
448,condition1,3,juede_unclear,117,放,3169,36,juede,
448,condition1,3,yiwei_unclear,110,認為,7340,37,yiwei,
448,condition1,3,filler,907,談,2722,38,filler,
448,condition1,3,juede_contrastive,11,戴,13723,39,juede,
448,condition1,3,yiwei_contrastive,3,猜,7700,40,yiwei,
448,condition1,4,juede_contrastive,14,認為,6159,41,juede,
448,condition1,4,juede_contrastive,20,說,5015,42,juede,
448,condition1,4,yiwei_contrastive,7,想,5747,43,yiwei,
448,condition1,4,juede_unclear,114,看,5322,44,juede,
448,condition1,4,filler,904,揠,11712,45,filler,
448,condition1,4,yiwei_unclear,108,想,7863,46,yiwei,
448,condition1,4,filler,905,指,4951,47,filler,
448,condition1,4,yiwei_contrastive,9,認為,3051,48,yiwei,
448,condition1,4,yiwei_unclear,109,認為,3871,49,yiwei,
448,condition1,4,juede_unclear,115,認為,68728,50,juede,
489,condition1,practice,practice_1,301,放,,0,NA,
489,condition1,practice,practice_2,302,打,,0,NA,
489,condition1,practice,practice_3,303,鬧,,0,NA,
489,condition1,practice,practice_4,304,鬧,,0,NA,
489,condition1,0,filler,903,待,5175,1,filler,
489,condition1,0,juede_unclear,114,怕,33370,2,juede,
489,condition1,0,juede_contrastive,15,看,7035,3,juede,
489,condition1,0,juede_unclear,120,怕,23503,4,juede,
489,condition1,0,yiwei_unclear,101,怕,16095,5,yiwei,
489,condition1,0,yiwei_unclear,109,趕,6195,6,yiwei,
489,condition1,0,filler,909,畫,7319,7,filler,
489,condition1,0,yiwei_contrastive,5,看,42148,8,yiwei,
489,condition1,0,yiwei_contrastive,2,怕,3772,9,yiwei,
489,condition1,0,juede_contrastive,14,猜,13053,10,juede,
489,condition1,1,juede_contrastive,12,覺得,4998,11,juede,
489,condition1,1,filler,904,揠,9570,12,filler,
489,condition1,1,yiwei_contrastive,1,覺得,27460,13,yiwei,
489,condition1,1,juede_contrastive,20,看,10602,14,juede,
489,condition1,1,yiwei_unclear,105,想要,16553,15,yiwei,
489,condition1,1,yiwei_unclear,110,猜,5678,16,yiwei,
489,condition1,1,juede_unclear,112,想,7894,17,juede,
489,condition1,1,yiwei_contrastive,6,覺得,4553,18,yiwei,
489,condition1,1,juede_unclear,118,認為,6500,19,juede,
489,condition1,1,filler,910,刻,6493,20,filler,
489,condition1,2,filler,901,撓,8036,21,filler,
489,condition1,2,filler,905,指,5801,22,filler,
489,condition1,2,juede_unclear,117,放,8247,23,juede,
489,condition1,2,yiwei_unclear,108,認定,121739,24,yiwei,
489,condition1,2,yiwei_contrastive,7,覺得,4869,25,yiwei,
489,condition1,2,juede_contrastive,19,覺得,6945,26,juede,
489,condition1,2,yiwei_unclear,104,當,8119,27,yiwei,
489,condition1,2,juede_contrastive,18,害怕,14763,28,juede,
489,condition1,2,juede_unclear,113,覺得,4018,29,juede,
489,condition1,2,yiwei_contrastive,10,以為,14310,30,yiwei,
489,condition1,3,juede_unclear,119,疼愛,12602,31,juede,
489,condition1,3,yiwei_unclear,107,以為,4829,32,yiwei,
489,condition1,3,juede_contrastive,13,買,35901,33,juede,
489,condition1,3,juede_unclear,115,覺得,16687,34,juede,
489,condition1,3,juede_contrastive,11,買,16173,35,juede,
489,condition1,3,yiwei_contrastive,8,看,7212,36,yiwei,
489,condition1,3,filler,907,談,3778,37,filler,
489,condition1,3,yiwei_contrastive,3,決定,18350,38,yiwei,
489,condition1,3,yiwei_unclear,106,剩,14971,39,yiwei,
489,condition1,3,filler,902,盜,18373,40,filler,
489,condition1,4,filler,908,拆,17262,41,filler,
489,condition1,4,juede_unclear,116,認,8830,42,juede,
489,condition1,4,yiwei_contrastive,4,敬,25736,43,yiwei,
489,condition1,4,juede_contrastive,16,記得,6949,44,juede,
489,condition1,4,yiwei_unclear,102,怕,9139,45,yiwei,
489,condition1,4,yiwei_contrastive,9,想,3562,46,yiwei,
489,condition1,4,filler,906,點,4390,47,filler,
489,condition1,4,yiwei_unclear,103,想,31046,48,yiwei,
489,condition1,4,juede_contrastive,17,以為,4334,49,juede,
489,condition1,4,juede_unclear,111,覺得,4410,50,juede,
463,condition1,practice,practice_1,301,放,,0,NA,
463,condition1,practice,practice_2,302,打,,0,NA,
463,condition1,practice,practice_3,303,发,,0,NA,
463,condition1,practice,practice_4,304,闹,,0,NA,
463,condition1,0,yiwei_unclear,101,说,6338,1,yiwei,
463,condition1,0,filler,906,点,4686,2,filler,
463,condition1,0,juede_unclear,111,知道,4530,3,juede,
463,condition1,0,juede_contrastive,11,买,9586,4,juede,
463,condition1,0,yiwei_contrastive,5,以为,6501,5,yiwei,
463,condition1,0,filler,905,指,4914,6,filler,
463,condition1,0,juede_unclear,114,怕,8939,7,juede,
463,condition1,0,yiwei_unclear,109,知道,4022,8,yiwei,
463,condition1,0,juede_contrastive,20,不知道,25041,9,juede,
463,condition1,0,yiwei_contrastive,4,以为,6359,10,yiwei,
463,condition1,1,yiwei_unclear,105,以为,9459,11,yiwei,
463,condition1,1,filler,907,谈,8588,12,filler,
463,condition1,1,juede_unclear,116,觉得,6359,13,juede,
463,condition1,1,filler,908,拆,3645,14,filler,
463,condition1,1,juede_unclear,115,认为,6743,15,juede,
463,condition1,1,yiwei_unclear,103,以为,5288,16,yiwei,
463,condition1,1,yiwei_contrastive,6,猜,6561,17,yiwei,
463,condition1,1,juede_contrastive,15,买的,11348,18,juede,
463,condition1,1,juede_contrastive,17,不,7088,19,juede,
463,condition1,1,yiwei_contrastive,9,猜,4627,20,yiwei,
463,condition1,2,juede_contrastive,13,不,7643,21,juede,
463,condition1,2,juede_unclear,119,看,7665,22,juede,
463,condition1,2,yiwei_contrastive,10,猜,6105,23,yiwei,
463,condition1,2,juede_contrastive,18,说,5602,24,juede,
463,condition1,2,juede_unclear,117,藏,5326,25,juede,
463,condition1,2,yiwei_unclear,110,担心,8557,26,yiwei,
463,condition1,2,filler,902,盗,5692,27,filler,
463,condition1,2,yiwei_contrastive,1,知道,3811,28,yiwei,
463,condition1,2,filler,903,待,5168,29,filler,
463,condition1,2,yiwei_unclear,102,说,3509,30,yiwei,
463,condition1,3,yiwei_contrastive,8,说,5310,31,yiwei,
463,condition1,3,juede_unclear,118,认为,5325,32,juede,
463,condition1,3,yiwei_unclear,107,说,4283,33,yiwei,
463,condition1,3,filler,909,画,5354,34,filler,
463,condition1,3,juede_contrastive,19,觉得,12946,35,juede,
463,condition1,3,juede_contrastive,16,觉得,8522,36,juede,
463,condition1,3,yiwei_unclear,106,知道,10077,37,yiwei,
463,condition1,3,juede_unclear,112,发现,5595,38,juede,
463,condition1,3,filler,910,刻,6990,39,filler,
463,condition1,3,yiwei_contrastive,3,说,7080,40,yiwei,
463,condition1,4,juede_contrastive,14,说,8310,41,juede,
463,condition1,4,yiwei_unclear,104,告诉,7824,42,yiwei,
463,condition1,4,juede_contrastive,12,认为,4492,43,juede,
463,condition1,4,yiwei_unclear,108,说,5159,44,yiwei,
463,condition1,4,yiwei_contrastive,7,认为,5363,45,yiwei,
463,condition1,4,juede_unclear,120,担心,8424,46,juede,
463,condition1,4,yiwei_contrastive,2,以为,4198,47,yiwei,
463,condition1,4,juede_unclear,113,认为,3585,48,juede,
463,condition1,4,filler,901,挠,5409,49,filler,
463,condition1,4,filler,904,揠,7664,50,filler,
513,condition1,practice,practice_1,301,放,,0,NA,
513,condition1,practice,practice_2,302,打,,0,NA,
513,condition1,practice,practice_3,303,发,,0,NA,
513,condition1,practice,practice_4,304,闹,,0,NA,
513,condition1,0,yiwei_unclear,103,以为,11327,1,yiwei,
513,condition1,0,juede_contrastive,18,觉得,9996,2,juede,
513,condition1,0,juede_unclear,117,藏,5868,3,juede,
513,condition1,0,yiwei_contrastive,5,觉得,9822,4,yiwei,
513,condition1,0,yiwei_contrastive,8,觉得,17779,5,yiwei,
513,condition1,0,yiwei_unclear,102,觉得,5404,6,yiwei,
513,condition1,0,juede_contrastive,20,看,62073,7,juede,
513,condition1,0,filler,909,画,5535,8,filler,
513,condition1,0,juede_unclear,119,看,6605,9,juede,
513,condition1,0,filler,905,指,9840,10,filler,
513,condition1,1,yiwei_unclear,108,认为,14376,11,yiwei,
513,condition1,1,filler,904,拔,25019,12,filler,
513,condition1,1,yiwei_unclear,105,以为,15630,13,yiwei,
513,condition1,1,yiwei_contrastive,10,以为,5336,14,yiwei,
513,condition1,1,yiwei_contrastive,2,觉得,7629,15,yiwei,
513,condition1,1,filler,903,待,6348,16,filler,
513,condition1,1,juede_contrastive,17,看,6856,17,juede,
513,condition1,1,juede_unclear,118,觉得,4588,18,juede,
513,condition1,1,juede_contrastive,15,看,9373,19,juede,
513,condition1,1,juede_unclear,120,以为,10273,20,juede,
513,condition1,2,yiwei_unclear,104,看,9241,21,yiwei,
513,condition1,2,juede_contrastive,11,看,12710,22,juede,
513,condition1,2,juede_unclear,114,看见,10576,23,juede,
513,condition1,2,juede_contrastive,19,认为,9473,24,juede,
513,condition1,2,filler,910,刻,8288,25,filler,
513,condition1,2,juede_unclear,115,觉得,5620,26,juede,
513,condition1,2,yiwei_contrastive,9,认为,3236,27,yiwei,
513,condition1,2,filler,907,谈,4136,28,filler,
513,condition1,2,yiwei_contrastive,7,觉得,4722,29,yiwei,
513,condition1,2,yiwei_unclear,109,看见,6369,30,yiwei,
513,condition1,3,yiwei_contrastive,3,说,9175,31,yiwei,
513,condition1,3,yiwei_unclear,106,看见,6772,32,yiwei,
513,condition1,3,juede_unclear,116,想,31490,33,juede,
513,condition1,3,juede_unclear,112,觉得,5304,34,juede,
513,condition1,3,yiwei_contrastive,6,觉得,4987,35,yiwei,
513,condition1,3,filler,902,盗,5038,36,filler,
513,condition1,3,juede_contrastive,12,觉得,3270,37,juede,
513,condition1,3,filler,906,点,4068,38,filler,
513,condition1,3,yiwei_unclear,110,觉得,8340,39,yiwei,
513,condition1,3,juede_contrastive,14,认为,5304,40,juede,
513,condition1,4,yiwei_contrastive,1,说,5187,41,yiwei,
513,condition1,4,juede_contrastive,16,看见的,10542,42,juede,
513,condition1,4,juede_unclear,111,觉得,4202,43,juede,
513,condition1,4,filler,908,拆,6055,44,filler,
513,condition1,4,juede_contrastive,13,用的,7139,45,juede,
513,condition1,4,yiwei_unclear,107,以为,6421,46,yiwei,
513,condition1,4,yiwei_unclear,101,以为,4421,47,yiwei,
513,condition1,4,yiwei_contrastive,4,认为,8289,48,yiwei,
513,condition1,4,filler,901,挠,4451,49,filler,
513,condition1,4,juede_unclear,113,觉得,3506,50,juede,
440,condition1,practice,practice_1,301,放,,0,NA,
440,condition1,practice,practice_2,302,击,,0,NA,
440,condition1,practice,practice_3,303,发,,0,NA,
440,condition1,practice,practice_4,304,闹,,0,NA,
440,condition1,0,juede_contrastive,12,觉得,23159,1,juede,
440,condition1,0,yiwei_unclear,105,以为,25530,2,yiwei,
440,condition1,0,juede_contrastive,18,确认,18902,3,juede,
440,condition1,0,juede_unclear,119,照顾,20954,4,juede,
440,condition1,0,juede_unclear,114,看到,15472,5,juede,
440,condition1,0,yiwei_contrastive,9,来,12730,6,yiwei,
440,condition1,0,filler,909,画,5960,7,filler,
440,condition1,0,yiwei_unclear,103,以为,12516,8,yiwei,
440,condition1,0,yiwei_contrastive,1,说,9118,9,yiwei,
440,condition1,0,filler,907,谈,5471,10,filler,
440,condition1,1,filler,906,点,9035,11,filler,
440,condition1,1,filler,908,拆,11118,12,filler,
440,condition1,1,juede_unclear,113,认为,12831,13,juede,
440,condition1,1,juede_unclear,115,觉得,7951,14,juede,
440,condition1,1,yiwei_contrastive,5,说,9703,15,yiwei,
440,condition1,1,yiwei_contrastive,7,知道,10069,16,yiwei,
440,condition1,1,juede_contrastive,15,说,19731,17,juede,
440,condition1,1,juede_contrastive,13,认为,12371,18,juede,
440,condition1,1,yiwei_unclear,104,看,10933,19,yiwei,
440,condition1,1,yiwei_unclear,109,知道,7590,20,yiwei,
440,condition1,2,juede_contrastive,19,觉得,8586,21,juede,
440,condition1,2,yiwei_unclear,107,觉得,13150,22,yiwei,
440,condition1,2,yiwei_contrastive,10,以为,20385,23,yiwei,
440,condition1,2,yiwei_contrastive,8,以为,9153,24,yiwei,
440,condition1,2,yiwei_unclear,101,以为,11034,25,yiwei,
440,condition1,2,juede_unclear,112,记得,12016,26,juede,
440,condition1,2,filler,903,待,7673,27,filler,
440,condition1,2,juede_unclear,111,认为,7807,28,juede,
440,condition1,2,filler,902,盗,7235,29,filler,
440,condition1,2,juede_contrastive,17,说,8880,30,juede,
440,condition1,3,juede_contrastive,14,说,5699,31,juede,
440,condition1,3,filler,910,刻,14344,32,filler,
440,condition1,3,filler,901,弄,7522,33,filler,
440,condition1,3,juede_unclear,120,觉得,11517,34,juede,
440,condition1,3,yiwei_unclear,102,说,8719,35,yiwei,
440,condition1,3,juede_unclear,116,看,19405,36,juede,
440,condition1,3,yiwei_contrastive,3,看,10301,37,yiwei,
440,condition1,3,yiwei_unclear,106,剩下,26047,38,yiwei,
440,condition1,3,juede_contrastive,20,说,18204,39,juede,
440,condition1,3,yiwei_contrastive,2,感觉,11351,40,yiwei,
440,condition1,4,yiwei_unclear,108,认为,13380,41,yiwei,
440,condition1,4,juede_unclear,117,卡,9751,42,juede,
440,condition1,4,juede_contrastive,11,觉得,4975,43,juede,
440,condition1,4,juede_contrastive,16,看,6341,44,juede,
440,condition1,4,yiwei_unclear,110,看,23017,45,yiwei,
440,condition1,4,filler,905,指,7040,46,filler,
440,condition1,4,filler,904,拔,6404,47,filler,
440,condition1,4,juede_unclear,118,估计,10567,48,juede,
440,condition1,4,yiwei_contrastive,4,当,12630,49,yiwei,
440,condition1,4,yiwei_contrastive,6,知道,7606,50,yiwei,
496,condition1,practice,practice_1,301,放,,0,NA,
496,condition1,practice,practice_2,302,打,,0,NA,
496,condition1,practice,practice_3,303,發,,0,NA,
496,condition1,practice,practice_4,304,鬧,,0,NA,
496,condition1,0,yiwei_contrastive,8,看,20200,1,yiwei,
496,condition1,0,juede_unclear,117,放,4384,2,juede,
496,condition1,0,juede_contrastive,12,看,4066,3,juede,
496,condition1,0,yiwei_unclear,102,看,27550,4,yiwei,
496,condition1,0,juede_unclear,114,怕,32367,5,juede,
496,condition1,0,yiwei_unclear,106,看,11498,6,yiwei,
496,condition1,0,filler,904,揠,7720,7,filler,
496,condition1,0,filler,903,待,5646,8,filler,
496,condition1,0,yiwei_contrastive,1,說,4100,9,yiwei,
496,condition1,0,juede_contrastive,18,租,27202,10,juede,
496,condition1,1,filler,910,刻,6599,11,filler,
496,condition1,1,yiwei_contrastive,6,？,20701,12,yiwei,
496,condition1,1,filler,901,猴,8300,13,filler,
496,condition1,1,yiwei_contrastive,3,剛剛,5800,14,yiwei,
496,condition1,1,juede_unclear,119,說,8199,15,juede,
496,condition1,1,juede_contrastive,14,坐,16834,16,juede,
496,condition1,1,juede_contrastive,19,道,13316,17,juede,
496,condition1,1,yiwei_unclear,103,以為,5897,18,yiwei,
496,condition1,1,yiwei_unclear,109,帶,8854,19,yiwei,
496,condition1,1,juede_unclear,111,覺得,5747,20,juede,
496,condition1,2,juede_unclear,120,說,3950,21,juede,
496,condition1,2,yiwei_contrastive,5,以為,3666,22,yiwei,
496,condition1,2,filler,908,河拆,7703,23,filler,
496,condition1,2,yiwei_contrastive,7,怕,10333,24,yiwei,
496,condition1,2,yiwei_unclear,108,？,20751,25,yiwei,
496,condition1,2,juede_contrastive,17,覺得,7095,26,juede,
496,condition1,2,yiwei_unclear,104,？,13402,27,yiwei,
496,condition1,2,juede_contrastive,15,看,16330,28,juede,
496,condition1,2,filler,907,談,3415,29,filler,
496,condition1,2,juede_unclear,112,說過,7486,30,juede,
496,condition1,3,juede_unclear,116,看一輩子,15431,31,juede,
496,condition1,3,juede_unclear,115,覺得,7251,32,juede,
496,condition1,3,juede_contrastive,13,說這,14983,33,juede,
496,condition1,3,yiwei_unclear,110,猜,17479,34,yiwei,
496,condition1,3,yiwei_contrastive,2,看,3770,35,yiwei,
496,condition1,3,yiwei_unclear,107,說,5816,36,yiwei,
496,condition1,3,filler,905,比,4301,37,filler,
496,condition1,3,filler,906,點,2866,38,filler,
496,condition1,3,yiwei_contrastive,4,說,4050,39,yiwei,
496,condition1,3,juede_contrastive,11,戴,6399,40,juede,
496,condition1,4,juede_contrastive,20,看,7352,41,juede,
496,condition1,4,yiwei_unclear,101,會說,11067,42,yiwei,
496,condition1,4,yiwei_contrastive,10,還以為,6566,43,yiwei,
496,condition1,4,juede_unclear,118,認為,4882,44,juede,
496,condition1,4,filler,902,盜,4136,45,filler,
496,condition1,4,juede_unclear,113,認為,3498,46,juede,
496,condition1,4,juede_contrastive,16,認為,7766,47,juede,
496,condition1,4,yiwei_contrastive,9,認為,5200,48,yiwei,
496,condition1,4,yiwei_unclear,105,以為,17020,49,yiwei,
496,condition1,4,filler,909,畫,6915,50,filler,
473,condition1,practice,practice_1,301,放,,0,NA,
473,condition1,practice,practice_2,302,打,,0,NA,
473,condition1,practice,practice_3,303,发,,0,NA,
473,condition1,practice,practice_4,304,闹,,0,NA,
473,condition1,0,filler,903,待,5318,1,filler,
473,condition1,0,yiwei_contrastive,10,可,29398,2,yiwei,
473,condition1,0,yiwei_unclear,101,不,42901,3,yiwei,
473,condition1,0,juede_unclear,112,想,31116,4,juede,
473,condition1,0,yiwei_unclear,106,是,8266,5,yiwei,
473,condition1,0,juede_unclear,114,觉得,59571,6,juede,
473,condition1,0,yiwei_contrastive,8,真的,4670,7,yiwei,
473,condition1,0,juede_contrastive,15,的,11525,8,juede,
473,condition1,0,filler,908,拆,4690,9,filler,
473,condition1,0,juede_contrastive,19,觉得,8780,10,juede,
473,condition1,1,filler,901,挠,5044,11,filler,
473,condition1,1,juede_contrastive,16,的,5242,12,juede,
473,condition1,1,yiwei_unclear,109,让,5264,13,yiwei,
473,condition1,1,yiwei_contrastive,7,的,9106,14,yiwei,
473,condition1,1,yiwei_contrastive,9,们,4339,15,yiwei,
473,condition1,1,juede_unclear,111,觉得,5403,16,juede,
473,condition1,1,juede_contrastive,18,的,6475,17,juede,
473,condition1,1,filler,906,点,3928,18,filler,
473,condition1,1,juede_unclear,115,觉得,5656,19,juede,
473,condition1,1,yiwei_unclear,103,在想,12961,20,yiwei,
473,condition1,2,juede_unclear,119,摸,9148,21,juede,
473,condition1,2,juede_contrastive,11,选,14325,22,juede,
473,condition1,2,yiwei_unclear,102,的,16166,23,yiwei,
473,condition1,2,juede_contrastive,13,那,10391,24,juede,
473,condition1,2,filler,905,指,5447,25,filler,
473,condition1,2,yiwei_unclear,110,不,8598,26,yiwei,
473,condition1,2,yiwei_contrastive,5,没想到,17899,27,yiwei,
473,condition1,2,juede_unclear,113,觉得,8814,28,juede,
473,condition1,2,yiwei_contrastive,1,看,7355,29,yiwei,
473,condition1,2,filler,904,揠,6131,30,filler,
473,condition1,3,juede_unclear,118,觉得,6537,31,juede,
473,condition1,3,filler,907,谈,3341,32,filler,
473,condition1,3,yiwei_unclear,107,称,7119,33,yiwei,
473,condition1,3,yiwei_contrastive,2,看,14795,34,yiwei,
473,condition1,3,juede_contrastive,20,看,10952,35,juede,
473,condition1,3,juede_contrastive,17,看,6120,36,juede,
473,condition1,3,yiwei_unclear,104,看,13919,37,yiwei,
473,condition1,3,yiwei_contrastive,6,的,3114,38,yiwei,
473,condition1,3,filler,909,画,4687,39,filler,
