workerid,proliferate.condition,block_id,condition,item_id,response,rt,trial_num,verb,error,answer,response_correct,response_clean,response_type,response_num,discourse_type
452,condition1,0,juede_unclear,114,看,19878,1,juede,NA,NA,NA,other,non-other,0,unconstrained
452,condition1,0,yiwei_contrastive,9,要,15941,3,yiwei,NA,NA,NA,other,ambiguous want,0,constrained
452,condition1,0,yiwei_unclear,103,是,19264,4,yiwei,NA,NA,NA,other,other,0,unconstrained
452,condition1,0,juede_unclear,111,觉得,7560,5,juede,NA,NA,NA,juede,non-belief,1,unconstrained
452,condition1,0,juede_contrastive,15,的,18838,6,juede,NA,NA,NA,other,other,0,constrained
452,condition1,0,yiwei_unclear,106,剩,14825,7,yiwei,NA,NA,NA,other,other,0,unconstrained
452,condition1,0,yiwei_contrastive,10,不,13436,8,yiwei,NA,NA,NA,other,other,0,constrained
452,condition1,0,juede_contrastive,19,挺,6811,10,juede,NA,NA,NA,other,other,0,constrained
452,condition1,1,juede_unclear,113,说,4881,11,juede,NA,NA,NA,other,non-say,0,unconstrained
452,condition1,1,yiwei_contrastive,5,认为,5272,13,yiwei,NA,NA,NA,other,non-belief,0,constrained
452,condition1,1,yiwei_unclear,102,猜,55121,15,yiwei,NA,NA,NA,other,non-belief,0,unconstrained
452,condition1,1,yiwei_contrastive,3,就,14745,16,yiwei,NA,NA,NA,other,other,0,constrained
452,condition1,1,juede_contrastive,16,感觉,17540,17,juede,NA,NA,NA,other,non-belief,0,constrained
452,condition1,1,juede_unclear,119,看,5219,18,juede,NA,NA,NA,other,non-other,0,unconstrained
452,condition1,1,juede_contrastive,14,出生,4225,19,juede,NA,NA,NA,other,other,0,constrained
452,condition1,1,yiwei_unclear,108,觉得,42810,20,yiwei,NA,NA,NA,juede,non-belief,0,unconstrained
452,condition1,2,yiwei_contrastive,8,赞同,23934,21,yiwei,NA,NA,NA,other,other,0,constrained
452,condition1,2,yiwei_contrastive,7,看,9567,22,yiwei,NA,NA,NA,other,non-other,0,constrained
452,condition1,2,yiwei_unclear,104,看,26424,23,yiwei,NA,NA,NA,other,non-other,0,unconstrained
452,condition1,2,juede_contrastive,20,瞧,6505,24,juede,NA,NA,NA,other,other,0,constrained
452,condition1,2,juede_unclear,118,猜,3631,25,juede,NA,NA,NA,other,non-belief,0,unconstrained
452,condition1,2,juede_contrastive,12,认为,2944,26,juede,NA,NA,NA,other,non-belief,0,constrained
452,condition1,2,yiwei_unclear,109,觉得,12394,27,yiwei,NA,NA,NA,juede,non-belief,0,unconstrained
452,condition1,2,juede_unclear,120,待在,5981,28,juede,NA,NA,NA,other,other,0,unconstrained
452,condition1,3,yiwei_unclear,107,说,4384,33,yiwei,NA,NA,NA,other,non-say,0,unconstrained
452,condition1,3,yiwei_contrastive,1,说,7050,34,yiwei,NA,NA,NA,other,non-say,0,constrained
452,condition1,3,yiwei_contrastive,2,瞧,4186,35,yiwei,NA,NA,NA,other,other,0,constrained
452,condition1,3,juede_contrastive,18,待,8254,36,juede,NA,NA,NA,other,other,0,constrained
452,condition1,3,yiwei_unclear,101,责怪,5600,37,yiwei,NA,NA,NA,other,other,0,unconstrained
452,condition1,3,juede_unclear,112,发现,3405,38,juede,NA,NA,NA,other,factive-other,0,unconstrained
452,condition1,3,juede_unclear,115,发现,2917,39,juede,NA,NA,NA,other,factive-other,0,unconstrained
452,condition1,3,juede_contrastive,11,看,5296,40,juede,NA,NA,NA,other,non-other,0,constrained
452,condition1,4,yiwei_contrastive,4,猜,5038,42,yiwei,NA,NA,NA,other,non-belief,0,constrained
452,condition1,4,juede_contrastive,17,才,3154,43,juede,NA,NA,NA,other,other,0,constrained
452,condition1,4,juede_unclear,117,放,9104,44,juede,NA,NA,NA,other,other,0,unconstrained
452,condition1,4,yiwei_unclear,105,觉得这,31496,45,yiwei,NA,NA,NA,juede,non-belief,0,unconstrained
452,condition1,4,yiwei_contrastive,6,猜,4632,46,yiwei,NA,NA,NA,other,non-belief,0,constrained
452,condition1,4,juede_unclear,116,看,3874,48,juede,NA,NA,NA,other,non-other,0,unconstrained
452,condition1,4,yiwei_unclear,110,看,13174,49,yiwei,NA,NA,NA,other,non-other,0,unconstrained
452,condition1,4,juede_contrastive,13,用的,13978,50,juede,NA,NA,NA,other,other,0,constrained
512,condition1,0,juede_contrastive,16,拿的,52709,1,juede,NA,NA,NA,other,other,0,constrained
512,condition1,0,juede_unclear,112,觉得,50361,2,juede,NA,NA,NA,juede,non-belief,1,unconstrained
512,condition1,0,yiwei_contrastive,9,要的,30216,4,yiwei,NA,NA,NA,other,other,0,constrained
512,condition1,0,yiwei_unclear,103,说,60623,5,yiwei,NA,NA,NA,other,non-say,0,unconstrained
512,condition1,0,yiwei_unclear,110,想,14816,7,yiwei,NA,NA,NA,other,non-belief,0,unconstrained
512,condition1,0,juede_unclear,120,有,170456,8,juede,NA,NA,NA,other,other,0,unconstrained
512,condition1,0,yiwei_contrastive,1,说,11849,9,yiwei,NA,NA,NA,other,non-say,0,constrained
512,condition1,0,juede_contrastive,11,戴,54427,10,juede,NA,NA,NA,other,other,0,constrained
512,condition1,1,yiwei_unclear,101,说,75030,11,yiwei,NA,NA,NA,other,non-say,0,unconstrained
512,condition1,1,juede_unclear,111,觉得,14247,12,juede,NA,NA,NA,juede,non-belief,1,unconstrained
512,condition1,1,yiwei_unclear,106,算,61512,13,yiwei,NA,NA,NA,other,other,0,unconstrained
512,condition1,1,juede_unclear,114,不像,77692,14,juede,NA,NA,NA,other,other,0,unconstrained
512,condition1,1,yiwei_contrastive,10,还以为,57935,16,yiwei,NA,NA,NA,yiwei,contra,1,constrained
512,condition1,1,juede_contrastive,19,觉得,46304,18,juede,NA,NA,NA,juede,non-belief,1,constrained
512,condition1,1,juede_contrastive,15,看,59448,19,juede,NA,NA,NA,other,non-other,0,constrained
512,condition1,1,yiwei_contrastive,5,觉得,12881,20,yiwei,NA,NA,NA,juede,non-belief,0,constrained
512,condition1,2,yiwei_contrastive,4,看,13421,21,yiwei,NA,NA,NA,other,non-other,0,constrained
512,condition1,2,juede_unclear,116,看,76531,22,juede,NA,NA,NA,other,non-other,0,unconstrained
512,condition1,2,juede_unclear,118,觉得,68020,23,juede,NA,NA,NA,juede,non-belief,1,unconstrained
512,condition1,2,juede_contrastive,20,看,15149,24,juede,NA,NA,NA,other,non-other,0,constrained
512,condition1,2,yiwei_contrastive,3,就,52443,25,yiwei,NA,NA,NA,other,other,0,constrained
512,condition1,2,juede_contrastive,12,觉得,4907,28,juede,NA,NA,NA,juede,non-belief,1,constrained
512,condition1,2,yiwei_unclear,109,叫,73334,29,yiwei,NA,NA,NA,other,non-say,0,unconstrained
512,condition1,2,yiwei_unclear,104,看,27099,30,yiwei,NA,NA,NA,other,non-other,0,unconstrained
512,condition1,3,juede_contrastive,14,就,49924,32,juede,NA,NA,NA,other,other,0,constrained
512,condition1,3,juede_unclear,117,藏,42482,33,juede,NA,NA,NA,other,other,0,unconstrained
512,condition1,3,juede_contrastive,17,就,29116,34,juede,NA,NA,NA,other,other,0,constrained
512,condition1,3,yiwei_contrastive,8,可,31995,35,yiwei,NA,NA,NA,other,other,0,constrained
512,condition1,3,yiwei_unclear,107,当,33757,36,yiwei,NA,NA,NA,other,contra,0,unconstrained
512,condition1,3,yiwei_contrastive,2,以为,64574,37,yiwei,NA,NA,NA,yiwei,contra,1,constrained
512,condition1,3,yiwei_unclear,108,认为,40349,38,yiwei,NA,NA,NA,other,non-belief,0,unconstrained
512,condition1,3,juede_unclear,113,觉得,6393,40,juede,NA,NA,NA,juede,non-belief,1,unconstrained
512,condition1,4,juede_unclear,115,想,50826,41,juede,NA,NA,NA,other,non-belief,0,unconstrained
512,condition1,4,juede_unclear,119,觉得,17445,42,juede,NA,NA,NA,juede,non-belief,1,unconstrained
512,condition1,4,yiwei_unclear,102,觉得,37452,44,yiwei,NA,NA,NA,juede,non-belief,0,unconstrained
512,condition1,4,yiwei_contrastive,7,才,34779,45,yiwei,NA,NA,NA,other,other,0,constrained
512,condition1,4,yiwei_unclear,105,就,53516,46,yiwei,NA,NA,NA,other,other,0,unconstrained
512,condition1,4,yiwei_contrastive,6,觉得,10598,47,yiwei,NA,NA,NA,juede,non-belief,0,constrained
512,condition1,4,juede_contrastive,18,怕,12785,49,juede,NA,NA,NA,other,non-emotion,0,constrained
512,condition1,4,juede_contrastive,13,就,39558,50,juede,NA,NA,NA,other,other,0,constrained
518,condition1,0,juede_contrastive,15,看,24463,1,juede,NA,NA,NA,other,non-other,0,constrained
518,condition1,0,yiwei_contrastive,3,就,30193,2,yiwei,NA,NA,NA,other,other,0,constrained
518,condition1,0,juede_unclear,118,看,18368,4,juede,NA,NA,NA,other,non-other,0,unconstrained
518,condition1,0,juede_unclear,115,看,9702,6,juede,NA,NA,NA,other,non-other,0,unconstrained
518,condition1,0,yiwei_contrastive,8,还,19649,7,yiwei,NA,NA,NA,other,other,0,constrained
518,condition1,0,juede_contrastive,20,这,9691,8,juede,NA,NA,NA,other,other,0,constrained
518,condition1,0,yiwei_unclear,107,说,20655,9,yiwei,NA,NA,NA,other,non-say,0,unconstrained
518,condition1,0,yiwei_unclear,104,这,7501,10,yiwei,NA,NA,NA,other,other,0,unconstrained
518,condition1,1,yiwei_unclear,109,说,7862,11,yiwei,NA,NA,NA,other,non-say,0,unconstrained
518,condition1,1,juede_contrastive,17,就,9394,12,juede,NA,NA,NA,other,other,0,constrained
518,condition1,1,juede_unclear,114,看,11037,13,juede,NA,NA,NA,other,non-other,0,unconstrained
518,condition1,1,juede_unclear,112,觉得,28426,14,juede,NA,NA,NA,juede,non-belief,1,unconstrained
518,condition1,1,yiwei_unclear,105,不过,16755,17,yiwei,NA,NA,NA,other,other,0,unconstrained
518,condition1,1,yiwei_contrastive,9,看,5090,18,yiwei,NA,NA,NA,other,non-other,0,constrained
518,condition1,1,juede_contrastive,18,的,7910,19,juede,NA,NA,NA,other,other,0,constrained
518,condition1,1,yiwei_contrastive,1,说,16689,20,yiwei,NA,NA,NA,other,non-say,0,constrained
518,condition1,2,juede_unclear,120,把,28194,21,juede,NA,NA,NA,other,other,0,unconstrained
518,condition1,2,juede_contrastive,19,是,13737,22,juede,NA,NA,NA,other,other,0,constrained
518,condition1,2,juede_contrastive,16,的,4623,23,juede,NA,NA,NA,other,other,0,constrained
518,condition1,2,yiwei_unclear,103,以为,14198,24,yiwei,NA,NA,NA,yiwei,contra,1,unconstrained
518,condition1,2,juede_unclear,113,说,6222,26,juede,NA,NA,NA,other,non-say,0,unconstrained
518,condition1,2,yiwei_unclear,101,以为,7697,27,yiwei,NA,NA,NA,yiwei,contra,1,unconstrained
518,condition1,2,yiwei_contrastive,4,觉得,16768,28,yiwei,NA,NA,NA,juede,non-belief,0,constrained
518,condition1,2,yiwei_contrastive,7,看,10500,30,yiwei,NA,NA,NA,other,non-other,0,constrained
518,condition1,3,yiwei_contrastive,2,看,4012,31,yiwei,NA,NA,NA,other,non-other,0,constrained
518,condition1,3,yiwei_unclear,108,这样想,16526,32,yiwei,NA,NA,NA,other,ambiguous want,0,unconstrained
518,condition1,3,juede_unclear,117,藏,9847,33,juede,NA,NA,NA,other,other,0,unconstrained
518,condition1,3,juede_contrastive,14,的,6062,34,juede,NA,NA,NA,other,other,0,constrained
518,condition1,3,yiwei_contrastive,6,的,5219,35,yiwei,NA,NA,NA,other,other,0,constrained
518,condition1,3,juede_contrastive,13,说,10129,37,juede,NA,NA,NA,other,non-say,0,constrained
518,condition1,3,juede_unclear,119,说,9028,39,juede,NA,NA,NA,other,non-say,0,unconstrained
518,condition1,3,yiwei_unclear,110,看,10097,40,yiwei,NA,NA,NA,other,non-other,0,unconstrained
518,condition1,4,yiwei_contrastive,5,觉得,16086,41,yiwei,NA,NA,NA,juede,non-belief,0,constrained
518,condition1,4,juede_contrastive,12,看,3910,42,juede,NA,NA,NA,other,non-other,0,constrained
518,condition1,4,juede_unclear,111,觉得,22981,44,juede,NA,NA,NA,juede,non-belief,1,unconstrained
518,condition1,4,juede_unclear,116,看,5415,45,juede,NA,NA,NA,other,non-other,0,unconstrained
518,condition1,4,yiwei_contrastive,10,以为,6456,46,yiwei,NA,NA,NA,yiwei,contra,1,constrained
518,condition1,4,yiwei_unclear,106,这,7931,47,yiwei,NA,NA,NA,other,other,0,unconstrained
518,condition1,4,yiwei_unclear,102,说,16940,48,yiwei,NA,NA,NA,other,non-say,0,unconstrained
518,condition1,4,juede_contrastive,11,我看,9523,50,juede,NA,NA,NA,other,non-other,0,constrained
451,condition1,0,yiwei_contrastive,9,做,20463,1,yiwei,NA,NA,NA,other,other,0,constrained
451,condition1,0,yiwei_contrastive,3,就,20065,3,yiwei,NA,NA,NA,other,other,0,constrained
451,condition1,0,juede_contrastive,12,看,3782,4,juede,NA,NA,NA,other,non-other,0,constrained
451,condition1,0,yiwei_unclear,109,赶,5344,5,yiwei,NA,NA,NA,other,other,0,unconstrained
451,condition1,0,juede_contrastive,16,打开,14055,6,juede,NA,NA,NA,other,other,0,constrained
451,condition1,0,juede_unclear,116,猜,14592,7,juede,NA,NA,NA,other,non-belief,0,unconstrained
451,condition1,0,yiwei_unclear,104,打,29473,8,yiwei,NA,NA,NA,other,other,0,unconstrained
451,condition1,0,juede_unclear,114,晒,19408,9,juede,NA,NA,NA,other,other,0,unconstrained
451,condition1,1,yiwei_unclear,103,发现,9912,12,yiwei,NA,NA,NA,other,factive-other,0,unconstrained
451,condition1,1,yiwei_unclear,110,让,9353,13,yiwei,NA,NA,NA,other,other,0,unconstrained
451,condition1,1,yiwei_contrastive,5,猜,4223,14,yiwei,NA,NA,NA,other,non-belief,0,constrained
451,condition1,1,juede_unclear,115,猜,6504,15,juede,NA,NA,NA,other,non-belief,0,unconstrained
451,condition1,1,juede_unclear,118,认为,7448,16,juede,NA,NA,NA,other,non-belief,0,unconstrained
451,condition1,1,yiwei_contrastive,8,猜,13271,17,yiwei,NA,NA,NA,other,non-belief,0,constrained
451,condition1,1,juede_contrastive,20,说,26144,18,juede,NA,NA,NA,other,non-say,0,constrained
451,condition1,1,juede_contrastive,11,戴,13207,20,juede,NA,NA,NA,other,other,0,constrained
451,condition1,2,juede_contrastive,18,说,4458,22,juede,NA,NA,NA,other,non-say,0,constrained
451,condition1,2,yiwei_unclear,106,凭,9031,23,yiwei,NA,NA,NA,other,other,0,unconstrained
451,condition1,2,yiwei_unclear,105,喜欢,37288,24,yiwei,NA,NA,NA,other,other,0,unconstrained
451,condition1,2,juede_unclear,113,认为,5592,25,juede,NA,NA,NA,other,non-belief,0,unconstrained
451,condition1,2,yiwei_contrastive,4,认为,7080,27,yiwei,NA,NA,NA,other,non-belief,0,constrained
451,condition1,2,juede_contrastive,15,猜,23360,28,juede,NA,NA,NA,other,non-belief,0,constrained
451,condition1,2,juede_unclear,117,放,4616,29,juede,NA,NA,NA,other,other,0,unconstrained
451,condition1,2,yiwei_contrastive,7,猜,7752,30,yiwei,NA,NA,NA,other,non-belief,0,constrained
451,condition1,3,juede_contrastive,14,工作,17855,33,juede,NA,NA,NA,other,other,0,constrained
451,condition1,3,yiwei_unclear,107,认为,6239,34,yiwei,NA,NA,NA,other,non-belief,0,unconstrained
451,condition1,3,yiwei_contrastive,1,叫,7177,35,yiwei,NA,NA,NA,other,non-say,0,constrained
451,condition1,3,juede_contrastive,17,认为,12761,36,juede,NA,NA,NA,other,non-belief,0,constrained
451,condition1,3,yiwei_contrastive,6,猜,3288,37,yiwei,NA,NA,NA,other,non-belief,0,constrained
451,condition1,3,juede_unclear,120,把,20167,38,juede,NA,NA,NA,other,other,0,unconstrained
451,condition1,3,yiwei_unclear,102,猜,7807,39,yiwei,NA,NA,NA,other,non-belief,0,unconstrained
451,condition1,3,juede_unclear,111,认为,5250,40,juede,NA,NA,NA,other,non-belief,0,unconstrained
451,condition1,4,yiwei_contrastive,10,以为,33889,42,yiwei,NA,NA,NA,yiwei,contra,1,constrained
451,condition1,4,yiwei_unclear,108,任职,15024,43,yiwei,NA,NA,NA,other,other,0,unconstrained
451,condition1,4,juede_contrastive,19,认为,25399,44,juede,NA,NA,NA,other,non-belief,0,constrained
451,condition1,4,juede_contrastive,13,拿的,16033,45,juede,NA,NA,NA,other,other,0,constrained
451,condition1,4,juede_unclear,112,认为,11751,46,juede,NA,NA,NA,other,non-belief,0,unconstrained
451,condition1,4,yiwei_unclear,101,认为,8192,47,yiwei,NA,NA,NA,other,non-belief,0,unconstrained
451,condition1,4,yiwei_contrastive,2,猜,8232,48,yiwei,NA,NA,NA,other,non-belief,0,constrained
451,condition1,4,juede_unclear,119,认为,7064,49,juede,NA,NA,NA,other,non-belief,0,unconstrained
502,condition1,0,juede_contrastive,15,打,17240,1,juede,NA,NA,NA,other,other,0,constrained
502,condition1,0,juede_unclear,114,見,20729,2,juede,NA,NA,NA,other,other,0,unconstrained
502,condition1,0,juede_contrastive,20,看,11717,4,juede,NA,NA,NA,other,non-other,0,constrained
502,condition1,0,yiwei_unclear,109,放,17561,5,yiwei,NA,NA,NA,other,other,0,unconstrained
502,condition1,0,yiwei_contrastive,6,想,13503,6,yiwei,NA,NA,NA,other,ambiguous want,0,constrained
502,condition1,0,juede_unclear,118,猜,6438,7,juede,NA,NA,NA,other,non-belief,0,unconstrained
502,condition1,0,yiwei_unclear,104,看,7806,8,yiwei,NA,NA,NA,other,non-other,0,unconstrained
502,condition1,0,yiwei_contrastive,9,想,5599,10,yiwei,NA,NA,NA,other,ambiguous want,0,constrained
502,condition1,1,juede_unclear,111,認為,8716,11,juede,NA,NA,NA,other,non-belief,0,unconstrained
502,condition1,1,yiwei_contrastive,10,估計,20203,12,yiwei,NA,NA,NA,other,other,0,constrained
502,condition1,1,yiwei_contrastive,4,猜,21495,14,yiwei,NA,NA,NA,other,non-belief,0,constrained
502,condition1,1,juede_contrastive,11,看來,12434,15,juede,NA,NA,NA,other,other,0,constrained
502,condition1,1,yiwei_unclear,103,以為,9635,16,yiwei,NA,NA,NA,yiwei,contra,1,unconstrained
502,condition1,1,juede_contrastive,13,拿着的,18705,17,juede,NA,NA,NA,other,other,0,constrained
502,condition1,1,juede_unclear,113,提出的,10343,18,juede,NA,NA,NA,other,other,0,unconstrained
502,condition1,1,yiwei_unclear,108,認同,17998,19,yiwei,NA,NA,NA,other,other,0,unconstrained
502,condition1,2,juede_contrastive,17,看,10929,21,juede,NA,NA,NA,other,non-other,0,constrained
502,condition1,2,juede_contrastive,18,怕害,16021,23,juede,NA,NA,NA,other,non-emotion,0,constrained
502,condition1,2,juede_unclear,116,覺得,21455,24,juede,NA,NA,NA,juede,non-belief,1,unconstrained
502,condition1,2,yiwei_contrastive,5,以為,5634,25,yiwei,NA,NA,NA,yiwei,contra,1,constrained
502,condition1,2,yiwei_unclear,102,擔心,16364,26,yiwei,NA,NA,NA,other,non-emotion,0,unconstrained
502,condition1,2,yiwei_unclear,101,以為,9632,27,yiwei,NA,NA,NA,yiwei,contra,1,unconstrained
502,condition1,2,juede_unclear,120,擔心,25035,28,juede,NA,NA,NA,other,non-emotion,0,unconstrained
502,condition1,2,yiwei_contrastive,8,看,33180,29,yiwei,NA,NA,NA,other,non-other,0,constrained
502,condition1,3,yiwei_contrastive,3,看,67988,31,yiwei,NA,NA,NA,other,non-other,0,constrained
502,condition1,3,juede_contrastive,12,認為,9424,32,juede,NA,NA,NA,other,non-belief,0,constrained
502,condition1,3,juede_unclear,119,抱着,22190,33,juede,NA,NA,NA,other,other,0,unconstrained
502,condition1,3,juede_unclear,112,想,24395,34,juede,NA,NA,NA,other,non-belief,0,unconstrained
502,condition1,3,yiwei_unclear,110,想,7727,35,yiwei,NA,NA,NA,other,non-belief,0,unconstrained
502,condition1,3,juede_contrastive,14,想,8198,36,juede,NA,NA,NA,other,ambiguous want,0,constrained
502,condition1,3,yiwei_unclear,107,覺得,8628,38,yiwei,NA,NA,NA,juede,non-belief,0,unconstrained
502,condition1,3,yiwei_contrastive,2,以為,8146,39,yiwei,NA,NA,NA,yiwei,contra,1,constrained
502,condition1,4,yiwei_contrastive,1,覺得,11707,41,yiwei,NA,NA,NA,juede,non-belief,0,constrained
502,condition1,4,juede_contrastive,16,拿的,12476,42,juede,NA,NA,NA,other,other,0,constrained
502,condition1,4,juede_unclear,117,放了,9337,44,juede,NA,NA,NA,other,other,0,unconstrained
502,condition1,4,juede_unclear,115,不認為,11515,45,juede,NA,NA,NA,other,non-belief,0,unconstrained
502,condition1,4,yiwei_contrastive,7,認為,12818,46,yiwei,NA,NA,NA,other,non-belief,0,constrained
502,condition1,4,yiwei_unclear,105,想,6756,47,yiwei,NA,NA,NA,other,non-belief,0,unconstrained
502,condition1,4,yiwei_unclear,106,像,13520,48,yiwei,NA,NA,NA,other,other,0,unconstrained
502,condition1,4,juede_contrastive,19,畫得,15679,50,juede,NA,NA,NA,other,other,0,constrained
485,condition1,0,juede_unclear,112,真的觉得,20201,1,juede,NA,NA,NA,juede,non-belief,1,unconstrained
485,condition1,0,yiwei_unclear,110,听说,9904,2,yiwei,NA,NA,NA,other,non-say,0,unconstrained
485,condition1,0,juede_contrastive,18,管理的,48492,3,juede,NA,NA,NA,other,other,0,constrained
485,condition1,0,yiwei_contrastive,2,看到,6712,4,yiwei,NA,NA,NA,other,factive-other,0,constrained
485,condition1,0,juede_contrastive,20,来到的,40032,5,juede,NA,NA,NA,other,other,0,constrained
485,condition1,0,yiwei_contrastive,10,觉得我,74770,7,yiwei,NA,NA,NA,juede,non-belief,0,constrained
485,condition1,0,juede_unclear,111,发现,4719,8,juede,NA,NA,NA,other,factive-other,0,unconstrained
485,condition1,0,yiwei_unclear,107,是男的而,21913,10,yiwei,NA,NA,NA,other,other,0,unconstrained
485,condition1,1,juede_unclear,117,藏,13686,12,juede,NA,NA,NA,other,other,0,unconstrained
485,condition1,1,yiwei_contrastive,4,喜欢,11294,13,yiwei,NA,NA,NA,other,other,0,constrained
485,condition1,1,yiwei_unclear,103,给他的,34075,15,yiwei,NA,NA,NA,other,other,0,unconstrained
485,condition1,1,yiwei_contrastive,5,和,11802,16,yiwei,NA,NA,NA,other,other,0,constrained
485,condition1,1,juede_contrastive,13,买的,17034,17,juede,NA,NA,NA,other,other,0,constrained
485,condition1,1,juede_unclear,116,死,18049,18,juede,NA,NA,NA,other,other,0,unconstrained
485,condition1,1,juede_contrastive,17,觉得,13550,19,juede,NA,NA,NA,juede,non-belief,1,constrained
485,condition1,1,yiwei_unclear,102,说,11438,20,yiwei,NA,NA,NA,other,non-say,0,unconstrained
485,condition1,2,juede_unclear,120,站在,9536,22,juede,NA,NA,NA,other,other,0,unconstrained
485,condition1,2,yiwei_contrastive,3,想的,9776,24,yiwei,NA,NA,NA,other,other,0,constrained
485,condition1,2,juede_contrastive,15,画的,19078,25,juede,NA,NA,NA,other,other,0,constrained
485,condition1,2,juede_unclear,114,看到,19731,26,juede,NA,NA,NA,other,factive-other,0,unconstrained
485,condition1,2,yiwei_unclear,108,犯错了，这就,23963,27,yiwei,NA,NA,NA,other,other,0,unconstrained
485,condition1,2,yiwei_contrastive,9,想,7774,28,yiwei,NA,NA,NA,other,ambiguous want,0,constrained
485,condition1,2,yiwei_unclear,101,会觉得,6466,29,yiwei,NA,NA,NA,juede,non-belief,0,unconstrained
485,condition1,2,juede_contrastive,16,买的,5135,30,juede,NA,NA,NA,other,other,0,constrained
485,condition1,3,juede_contrastive,11,我看,10119,31,juede,NA,NA,NA,other,non-other,0,constrained
485,condition1,3,yiwei_unclear,106,发现,51721,32,yiwei,NA,NA,NA,other,factive-other,0,unconstrained
485,condition1,3,juede_contrastive,14,找到,10930,33,juede,NA,NA,NA,other,other,0,constrained
485,condition1,3,juede_unclear,119,伺候,10682,34,juede,NA,NA,NA,other,other,0,unconstrained
485,condition1,3,yiwei_unclear,105,玩的,19712,35,yiwei,NA,NA,NA,other,other,0,unconstrained
485,condition1,3,yiwei_contrastive,1,说,15648,36,yiwei,NA,NA,NA,other,non-say,0,constrained
485,condition1,3,juede_unclear,113,都说,7376,38,juede,NA,NA,NA,other,non-say,0,unconstrained
485,condition1,3,yiwei_contrastive,7,觉得,7252,40,yiwei,NA,NA,NA,juede,non-belief,0,constrained
485,condition1,4,yiwei_contrastive,8,买的,8468,41,yiwei,NA,NA,NA,other,other,0,constrained
485,condition1,4,yiwei_unclear,109,希望,22948,42,yiwei,NA,NA,NA,other,other,0,unconstrained
485,condition1,4,yiwei_unclear,104,看好,31278,43,yiwei,NA,NA,NA,other,other,0,unconstrained
485,condition1,4,yiwei_contrastive,6,喜欢吃的,19926,44,yiwei,NA,NA,NA,other,other,0,constrained
485,condition1,4,juede_contrastive,12,认为,7360,45,juede,NA,NA,NA,other,non-belief,0,constrained
485,condition1,4,juede_contrastive,19,做的,24556,48,juede,NA,NA,NA,other,other,0,constrained
485,condition1,4,juede_unclear,115,发现,6836,49,juede,NA,NA,NA,other,factive-other,0,unconstrained
485,condition1,4,juede_unclear,118,去追,19397,50,juede,NA,NA,NA,other,other,0,unconstrained
506,condition1,0,yiwei_contrastive,3,想,21334,1,yiwei,NA,NA,NA,other,ambiguous want,0,constrained
506,condition1,0,juede_contrastive,13,觉得,56516,2,juede,NA,NA,NA,juede,non-belief,1,constrained
506,condition1,0,juede_unclear,119,看,4907,3,juede,NA,NA,NA,other,non-other,0,unconstrained
506,condition1,0,juede_unclear,120,说,13988,4,juede,NA,NA,NA,other,non-say,0,unconstrained
506,condition1,0,yiwei_contrastive,9,想,6093,5,yiwei,NA,NA,NA,other,ambiguous want,0,constrained
506,condition1,0,yiwei_unclear,110,认为,9152,6,yiwei,NA,NA,NA,other,non-belief,0,unconstrained
506,condition1,0,juede_contrastive,20,说,76558,7,juede,NA,NA,NA,other,non-say,0,constrained
506,condition1,0,yiwei_unclear,106,剩,6667,10,yiwei,NA,NA,NA,other,other,0,unconstrained
506,condition1,1,juede_unclear,113,说,4946,11,juede,NA,NA,NA,other,non-say,0,unconstrained
506,condition1,1,juede_contrastive,16,看,5600,12,juede,NA,NA,NA,other,non-other,0,constrained
506,condition1,1,juede_unclear,111,觉得,5901,13,juede,NA,NA,NA,juede,non-belief,1,unconstrained
506,condition1,1,yiwei_contrastive,4,说,7150,15,yiwei,NA,NA,NA,other,non-say,0,constrained
506,condition1,1,yiwei_unclear,104,看,3696,16,yiwei,NA,NA,NA,other,non-other,0,unconstrained
506,condition1,1,yiwei_unclear,101,以为,5989,18,yiwei,NA,NA,NA,yiwei,contra,1,unconstrained
506,condition1,1,juede_contrastive,15,看,3600,19,juede,NA,NA,NA,other,non-other,0,constrained
506,condition1,1,yiwei_contrastive,2,以为,5482,20,yiwei,NA,NA,NA,yiwei,contra,1,constrained
506,condition1,2,juede_contrastive,12,觉得,6099,21,juede,NA,NA,NA,juede,non-belief,1,constrained
506,condition1,2,yiwei_contrastive,7,觉得,5171,22,yiwei,NA,NA,NA,juede,non-belief,0,constrained
506,condition1,2,yiwei_unclear,107,以为,4170,23,yiwei,NA,NA,NA,yiwei,contra,1,unconstrained
506,condition1,2,juede_unclear,114,看,5264,24,juede,NA,NA,NA,other,non-other,0,unconstrained
506,condition1,2,juede_unclear,118,觉得,3851,25,juede,NA,NA,NA,juede,non-belief,1,unconstrained
506,condition1,2,yiwei_contrastive,6,觉得,4318,27,yiwei,NA,NA,NA,juede,non-belief,0,constrained
506,condition1,2,yiwei_unclear,108,说,6658,28,yiwei,NA,NA,NA,other,non-say,0,unconstrained
506,condition1,2,juede_contrastive,19,觉得,4079,29,juede,NA,NA,NA,juede,non-belief,1,constrained
506,condition1,3,yiwei_contrastive,10,以为,3550,31,yiwei,NA,NA,NA,yiwei,contra,1,constrained
506,condition1,3,yiwei_unclear,109,让,3411,32,yiwei,NA,NA,NA,other,other,0,unconstrained
506,condition1,3,juede_contrastive,17,当,5533,35,juede,NA,NA,NA,other,contra,0,constrained
506,condition1,3,juede_contrastive,14,说,4599,36,juede,NA,NA,NA,other,non-say,0,constrained
506,condition1,3,yiwei_unclear,102,说,4301,37,yiwei,NA,NA,NA,other,non-say,0,unconstrained
506,condition1,3,juede_unclear,116,觉得,5301,38,juede,NA,NA,NA,juede,non-belief,1,unconstrained
506,condition1,3,yiwei_contrastive,5,以为,5000,39,yiwei,NA,NA,NA,yiwei,contra,1,constrained
506,condition1,3,juede_unclear,112,发现,15748,40,juede,NA,NA,NA,other,factive-other,0,unconstrained
506,condition1,4,yiwei_contrastive,1,说,3801,41,yiwei,NA,NA,NA,other,non-say,0,constrained
506,condition1,4,juede_unclear,115,觉得,4784,42,juede,NA,NA,NA,juede,non-belief,1,unconstrained
506,condition1,4,yiwei_unclear,103,以为,9778,43,yiwei,NA,NA,NA,yiwei,contra,1,unconstrained
506,condition1,4,juede_unclear,117,放,3559,44,juede,NA,NA,NA,other,other,0,unconstrained
506,condition1,4,yiwei_unclear,105,觉得,172737,45,yiwei,NA,NA,NA,juede,non-belief,0,unconstrained
506,condition1,4,juede_contrastive,11,看,10274,46,juede,NA,NA,NA,other,non-other,0,constrained
506,condition1,4,yiwei_contrastive,8,以为,4266,47,yiwei,NA,NA,NA,yiwei,contra,1,constrained
506,condition1,4,juede_contrastive,18,认为,6248,49,juede,NA,NA,NA,other,non-belief,0,constrained
511,condition1,0,juede_unclear,114,推,70743,1,juede,NA,NA,NA,other,other,0,unconstrained
511,condition1,0,juede_contrastive,17,要,31820,2,juede,NA,NA,NA,other,other,0,constrained
511,condition1,0,yiwei_unclear,107,说,17182,3,yiwei,NA,NA,NA,other,non-say,0,unconstrained
511,condition1,0,juede_unclear,117,放,8101,4,juede,NA,NA,NA,other,other,0,unconstrained
511,condition1,0,juede_contrastive,18,说,6596,6,juede,NA,NA,NA,other,non-say,0,constrained
511,condition1,0,yiwei_contrastive,1,说,7167,7,yiwei,NA,NA,NA,other,non-say,0,constrained
511,condition1,0,yiwei_contrastive,9,买的,21500,9,yiwei,NA,NA,NA,other,other,0,constrained
511,condition1,0,yiwei_unclear,101,怪罪,10317,10,yiwei,NA,NA,NA,other,other,0,unconstrained
511,condition1,1,juede_contrastive,19,觉得,9649,11,juede,NA,NA,NA,juede,non-belief,1,constrained
511,condition1,1,juede_unclear,119,你看,7069,12,juede,NA,NA,NA,other,non-other,0,unconstrained
511,condition1,1,juede_unclear,111,觉得,5617,13,juede,NA,NA,NA,juede,non-belief,1,unconstrained
511,condition1,1,yiwei_contrastive,10,以为,21812,14,yiwei,NA,NA,NA,yiwei,contra,1,constrained
511,condition1,1,yiwei_contrastive,7,的伤,29083,16,yiwei,NA,NA,NA,other,other,0,constrained
511,condition1,1,yiwei_unclear,110,以为,36147,18,yiwei,NA,NA,NA,yiwei,contra,1,unconstrained
511,condition1,1,juede_contrastive,13,说的,10620,19,juede,NA,NA,NA,other,non-say,0,constrained
511,condition1,1,yiwei_unclear,108,忽略了原本,51829,20,yiwei,NA,NA,NA,other,other,0,unconstrained
511,condition1,2,juede_unclear,113,都觉得,5300,21,juede,NA,NA,NA,juede,non-belief,1,unconstrained
511,condition1,2,yiwei_contrastive,8,找了,24383,22,yiwei,NA,NA,NA,other,other,0,constrained
511,condition1,2,juede_contrastive,20,画的,11567,24,juede,NA,NA,NA,other,other,0,constrained
511,condition1,2,yiwei_unclear,109,送,11167,26,yiwei,NA,NA,NA,other,other,0,unconstrained
511,condition1,2,juede_contrastive,16,买的,6266,27,juede,NA,NA,NA,other,other,0,constrained
511,condition1,2,yiwei_unclear,106,发现,22433,28,yiwei,NA,NA,NA,other,factive-other,0,unconstrained
511,condition1,2,yiwei_contrastive,3,之前说,15050,29,yiwei,NA,NA,NA,other,non-say,0,constrained
511,condition1,2,juede_unclear,118,认为,15949,30,juede,NA,NA,NA,other,non-belief,0,unconstrained
511,condition1,3,yiwei_unclear,103,以为,9816,31,yiwei,NA,NA,NA,yiwei,contra,1,unconstrained
511,condition1,3,yiwei_contrastive,2,觉得,10850,32,yiwei,NA,NA,NA,juede,non-belief,0,constrained
511,condition1,3,yiwei_unclear,102,认为,9203,33,yiwei,NA,NA,NA,other,non-belief,0,unconstrained
511,condition1,3,juede_unclear,120,以为,8779,36,juede,NA,NA,NA,yiwei,contra,0,unconstrained
511,condition1,3,juede_contrastive,14,以为,32487,37,juede,NA,NA,NA,yiwei,contra,0,constrained
511,condition1,3,yiwei_contrastive,5,以为,12780,38,yiwei,NA,NA,NA,yiwei,contra,1,constrained
511,condition1,3,juede_unclear,112,发现,9966,39,juede,NA,NA,NA,other,factive-other,0,unconstrained
511,condition1,3,juede_contrastive,11,选,21722,40,juede,NA,NA,NA,other,other,0,constrained
511,condition1,4,juede_contrastive,12,觉得,5311,41,juede,NA,NA,NA,juede,non-belief,1,constrained
511,condition1,4,juede_unclear,115,认为,8983,42,juede,NA,NA,NA,other,non-belief,0,unconstrained
511,condition1,4,juede_contrastive,15,画的,16221,43,juede,NA,NA,NA,other,other,0,constrained
511,condition1,4,juede_unclear,116,感觉,8145,44,juede,NA,NA,NA,other,non-belief,0,unconstrained
511,condition1,4,yiwei_unclear,104,看看,16383,45,yiwei,NA,NA,NA,other,other,0,unconstrained
511,condition1,4,yiwei_unclear,105,习惯的,19017,48,yiwei,NA,NA,NA,other,other,0,unconstrained
511,condition1,4,yiwei_contrastive,6,听说,11766,49,yiwei,NA,NA,NA,other,non-say,0,constrained
511,condition1,4,yiwei_contrastive,4,听说,7250,50,yiwei,NA,NA,NA,other,non-say,0,constrained
466,condition1,0,yiwei_contrastive,10,弄,73328,2,yiwei,NA,NA,NA,other,other,0,constrained
466,condition1,0,yiwei_unclear,101,以为,58384,3,yiwei,NA,NA,NA,yiwei,contra,1,unconstrained
466,condition1,0,juede_unclear,120,看见,39792,4,juede,NA,NA,NA,other,factive-other,0,unconstrained
466,condition1,0,juede_contrastive,14,藏,35017,5,juede,NA,NA,NA,other,other,0,constrained
466,condition1,0,juede_contrastive,17,看,22959,6,juede,NA,NA,NA,other,non-other,0,constrained
466,condition1,0,yiwei_contrastive,1,说,6695,7,yiwei,NA,NA,NA,other,non-say,0,constrained
466,condition1,0,juede_unclear,119,看,6609,9,juede,NA,NA,NA,other,non-other,0,unconstrained
466,condition1,0,yiwei_unclear,107,说,7671,10,yiwei,NA,NA,NA,other,non-say,0,unconstrained
466,condition1,1,yiwei_unclear,103,看,7552,11,yiwei,NA,NA,NA,other,non-other,0,unconstrained
466,condition1,1,juede_contrastive,19,是,8416,14,juede,NA,NA,NA,other,other,0,constrained
466,condition1,1,yiwei_contrastive,9,说,7633,15,yiwei,NA,NA,NA,other,non-say,0,constrained
466,condition1,1,yiwei_contrastive,4,说,6615,16,yiwei,NA,NA,NA,other,non-say,0,constrained
466,condition1,1,juede_unclear,113,说,4536,17,juede,NA,NA,NA,other,non-say,0,unconstrained
466,condition1,1,yiwei_unclear,106,说,5992,18,yiwei,NA,NA,NA,other,non-say,0,unconstrained
466,condition1,1,juede_unclear,115,看,4432,19,juede,NA,NA,NA,other,non-other,0,unconstrained
466,condition1,1,juede_contrastive,16,看,5040,20,juede,NA,NA,NA,other,non-other,0,constrained
466,condition1,2,juede_contrastive,12,看,4176,21,juede,NA,NA,NA,other,non-other,0,constrained
466,condition1,2,yiwei_unclear,110,说,8360,22,yiwei,NA,NA,NA,other,non-say,0,unconstrained
466,condition1,2,yiwei_contrastive,2,看,4392,23,yiwei,NA,NA,NA,other,non-other,0,constrained
466,condition1,2,juede_unclear,118,看,4368,24,juede,NA,NA,NA,other,non-other,0,unconstrained
466,condition1,2,juede_unclear,117,说,7992,25,juede,NA,NA,NA,other,non-say,0,unconstrained
466,condition1,2,yiwei_unclear,105,看,8191,28,yiwei,NA,NA,NA,other,non-other,0,unconstrained
466,condition1,2,juede_contrastive,20,说,4904,29,juede,NA,NA,NA,other,non-say,0,constrained
466,condition1,2,yiwei_contrastive,6,说,4936,30,yiwei,NA,NA,NA,other,non-say,0,constrained
466,condition1,3,yiwei_contrastive,8,看,4240,31,yiwei,NA,NA,NA,other,non-other,0,constrained
466,condition1,3,juede_contrastive,18,说,4808,32,juede,NA,NA,NA,other,non-say,0,constrained
466,condition1,3,yiwei_contrastive,3,说,7354,33,yiwei,NA,NA,NA,other,non-say,0,constrained
466,condition1,3,yiwei_unclear,104,看,10504,35,yiwei,NA,NA,NA,other,non-other,0,unconstrained
466,condition1,3,juede_unclear,112,说,4953,36,juede,NA,NA,NA,other,non-say,0,unconstrained
466,condition1,3,juede_contrastive,11,看,5271,37,juede,NA,NA,NA,other,non-other,0,constrained
466,condition1,3,juede_unclear,116,看,4968,39,juede,NA,NA,NA,other,non-other,0,unconstrained
466,condition1,3,yiwei_unclear,109,说,4312,40,yiwei,NA,NA,NA,other,non-say,0,unconstrained
466,condition1,4,yiwei_unclear,108,说,5072,41,yiwei,NA,NA,NA,other,non-say,0,unconstrained
466,condition1,4,juede_contrastive,15,看,3992,42,juede,NA,NA,NA,other,non-other,0,constrained
466,condition1,4,juede_unclear,111,说,4552,43,juede,NA,NA,NA,other,non-say,0,unconstrained
466,condition1,4,yiwei_contrastive,7,看,4288,44,yiwei,NA,NA,NA,other,non-other,0,constrained
466,condition1,4,yiwei_unclear,102,说,4120,45,yiwei,NA,NA,NA,other,non-say,0,unconstrained
466,condition1,4,juede_contrastive,13,说,7840,46,juede,NA,NA,NA,other,non-say,0,constrained
466,condition1,4,juede_unclear,114,看,4969,48,juede,NA,NA,NA,other,non-other,0,unconstrained
466,condition1,4,yiwei_contrastive,5,看,6136,50,yiwei,NA,NA,NA,other,non-other,0,constrained
522,condition1,0,juede_unclear,113,觉得,19770,1,juede,NA,NA,NA,juede,non-belief,1,unconstrained
522,condition1,0,yiwei_unclear,104,带着,41754,2,yiwei,NA,NA,NA,other,other,0,unconstrained
522,condition1,0,juede_contrastive,12,觉得,7084,3,juede,NA,NA,NA,juede,non-belief,1,constrained
522,condition1,0,yiwei_unclear,109,说,15468,5,yiwei,NA,NA,NA,other,non-say,0,unconstrained
522,condition1,0,yiwei_contrastive,4,说,10635,7,yiwei,NA,NA,NA,other,non-say,0,constrained
522,condition1,0,juede_unclear,117,打开,36250,8,juede,NA,NA,NA,other,other,0,unconstrained
522,condition1,0,juede_contrastive,19,觉得,72715,9,juede,NA,NA,NA,juede,non-belief,1,constrained
522,condition1,0,yiwei_contrastive,8,说,20288,10,yiwei,NA,NA,NA,other,non-say,0,constrained
522,condition1,1,juede_unclear,120,站在,10251,11,juede,NA,NA,NA,other,other,0,unconstrained
522,condition1,1,yiwei_contrastive,1,说,7667,13,yiwei,NA,NA,NA,other,non-say,0,constrained
522,condition1,1,juede_contrastive,16,感觉,9017,14,juede,NA,NA,NA,other,non-belief,0,constrained
522,condition1,1,juede_unclear,119,说,6369,15,juede,NA,NA,NA,other,non-say,0,unconstrained
522,condition1,1,yiwei_unclear,101,觉得,9800,16,yiwei,NA,NA,NA,juede,non-belief,0,unconstrained
522,condition1,1,yiwei_unclear,105,以为,14935,17,yiwei,NA,NA,NA,yiwei,contra,1,unconstrained
522,condition1,1,juede_contrastive,13,说,10770,18,juede,NA,NA,NA,other,non-say,0,constrained
522,condition1,1,yiwei_contrastive,3,说,13818,20,yiwei,NA,NA,NA,other,non-say,0,constrained
522,condition1,2,yiwei_unclear,110,认为,17635,21,yiwei,NA,NA,NA,other,non-belief,0,unconstrained
522,condition1,2,yiwei_contrastive,10,以为,9446,22,yiwei,NA,NA,NA,yiwei,contra,1,constrained
522,condition1,2,juede_unclear,115,觉得,6984,23,juede,NA,NA,NA,juede,non-belief,1,unconstrained
522,condition1,2,juede_unclear,111,觉得,8000,25,juede,NA,NA,NA,juede,non-belief,1,unconstrained
522,condition1,2,juede_contrastive,20,说,14602,26,juede,NA,NA,NA,other,non-say,0,constrained
522,condition1,2,yiwei_contrastive,6,吃的,12937,27,yiwei,NA,NA,NA,other,other,0,constrained
522,condition1,2,yiwei_unclear,108,认为,14184,28,yiwei,NA,NA,NA,other,non-belief,0,unconstrained
522,condition1,2,juede_contrastive,14,觉得,7385,29,juede,NA,NA,NA,juede,non-belief,1,constrained
522,condition1,3,yiwei_unclear,107,说,7650,32,yiwei,NA,NA,NA,other,non-say,0,unconstrained
522,condition1,3,juede_unclear,118,觉得,6734,33,juede,NA,NA,NA,juede,non-belief,1,unconstrained
522,condition1,3,yiwei_contrastive,5,以为,5902,34,yiwei,NA,NA,NA,yiwei,contra,1,constrained
522,condition1,3,juede_contrastive,11,戴,10499,35,juede,NA,NA,NA,other,other,0,constrained
522,condition1,3,yiwei_unclear,102,以为,9361,36,yiwei,NA,NA,NA,yiwei,contra,1,unconstrained
522,condition1,3,yiwei_contrastive,2,觉得,8501,37,yiwei,NA,NA,NA,juede,non-belief,0,constrained
522,condition1,3,juede_contrastive,18,感觉,9802,39,juede,NA,NA,NA,other,non-belief,0,constrained
522,condition1,3,juede_unclear,114,送给,28574,40,juede,NA,NA,NA,other,other,0,unconstrained
522,condition1,4,juede_unclear,116,看,12701,41,juede,NA,NA,NA,other,non-other,0,unconstrained
522,condition1,4,yiwei_contrastive,7,看,12969,42,yiwei,NA,NA,NA,other,non-other,0,constrained
522,condition1,4,juede_contrastive,15,说,16153,44,juede,NA,NA,NA,other,non-say,0,constrained
522,condition1,4,yiwei_contrastive,9,认为,5766,45,yiwei,NA,NA,NA,other,non-belief,0,constrained
522,condition1,4,yiwei_unclear,106,说,8536,46,yiwei,NA,NA,NA,other,non-say,0,unconstrained
522,condition1,4,juede_contrastive,17,说,12118,47,juede,NA,NA,NA,other,non-say,0,constrained
522,condition1,4,juede_unclear,112,感觉,7785,48,juede,NA,NA,NA,other,non-belief,0,unconstrained
522,condition1,4,yiwei_unclear,103,说,9202,50,yiwei,NA,NA,NA,other,non-say,0,unconstrained
439,condition1,0,yiwei_contrastive,3,坚持,120580,1,yiwei,NA,NA,NA,other,other,0,constrained
439,condition1,0,yiwei_unclear,104,学,88534,3,yiwei,NA,NA,NA,other,other,0,unconstrained
439,condition1,0,yiwei_contrastive,4,喊,75968,4,yiwei,NA,NA,NA,other,non-say,0,constrained
439,condition1,0,juede_contrastive,19,是,37468,5,juede,NA,NA,NA,other,other,0,constrained
439,condition1,0,juede_unclear,116,执,96914,6,juede,NA,NA,NA,other,other,0,unconstrained
439,condition1,0,yiwei_unclear,109,放,22220,7,yiwei,NA,NA,NA,other,other,0,unconstrained
439,condition1,0,juede_unclear,117,锁,13138,9,juede,NA,NA,NA,other,other,0,unconstrained
439,condition1,0,juede_contrastive,15,看,30614,10,juede,NA,NA,NA,other,non-other,0,constrained
439,condition1,1,juede_unclear,115,同意,19477,11,juede,NA,NA,NA,other,other,0,unconstrained
439,condition1,1,yiwei_unclear,108,前进,86253,12,yiwei,NA,NA,NA,other,other,0,unconstrained
439,condition1,1,yiwei_unclear,103,以为,16063,14,yiwei,NA,NA,NA,yiwei,contra,1,unconstrained
439,condition1,1,juede_contrastive,11,选,23222,15,juede,NA,NA,NA,other,other,0,constrained
439,condition1,1,juede_contrastive,14,确认,25448,17,juede,NA,NA,NA,other,factive-other,0,constrained
439,condition1,1,yiwei_contrastive,1,说,21435,18,yiwei,NA,NA,NA,other,non-say,0,constrained
439,condition1,1,juede_unclear,113,认为,19952,19,juede,NA,NA,NA,other,non-belief,0,unconstrained
439,condition1,1,yiwei_contrastive,9,确定,23462,20,yiwei,NA,NA,NA,other,other,0,constrained
439,condition1,2,juede_contrastive,17,确定,53434,21,juede,NA,NA,NA,other,other,0,constrained
439,condition1,2,yiwei_unclear,105,断定,22973,22,yiwei,NA,NA,NA,other,other,0,unconstrained
439,condition1,2,juede_unclear,112,知道,16871,23,juede,NA,NA,NA,other,factive-belief,0,unconstrained
439,condition1,2,juede_contrastive,18,说,22472,24,juede,NA,NA,NA,other,non-say,0,constrained
439,condition1,2,yiwei_contrastive,7,肯定,42819,25,yiwei,NA,NA,NA,other,other,0,constrained
439,condition1,2,yiwei_unclear,107,以为,50840,26,yiwei,NA,NA,NA,yiwei,contra,1,unconstrained
439,condition1,2,yiwei_contrastive,5,猜,27899,28,yiwei,NA,NA,NA,other,non-belief,0,constrained
439,condition1,2,juede_unclear,114,觉得,48953,29,juede,NA,NA,NA,juede,non-belief,1,unconstrained
439,condition1,3,yiwei_unclear,102,幻想,26530,32,yiwei,NA,NA,NA,other,non-other,0,unconstrained
439,condition1,3,juede_unclear,111,认为,17926,33,juede,NA,NA,NA,other,non-belief,0,unconstrained
439,condition1,3,juede_unclear,120,怕,29533,34,juede,NA,NA,NA,other,non-emotion,0,unconstrained
439,condition1,3,juede_contrastive,16,觉得,28975,36,juede,NA,NA,NA,juede,non-belief,1,constrained
439,condition1,3,juede_contrastive,12,认为,28237,37,juede,NA,NA,NA,other,non-belief,0,constrained
439,condition1,3,yiwei_contrastive,8,选择,19212,38,yiwei,NA,NA,NA,other,other,0,constrained
439,condition1,3,yiwei_unclear,110,猜,32648,39,yiwei,NA,NA,NA,other,non-belief,0,unconstrained
439,condition1,3,yiwei_contrastive,10,猜测,53495,40,yiwei,NA,NA,NA,other,non-belief,0,constrained
439,condition1,4,juede_unclear,118,想,18741,41,juede,NA,NA,NA,other,non-belief,0,unconstrained
439,condition1,4,juede_contrastive,13,选择,44453,42,juede,NA,NA,NA,other,other,0,constrained
439,condition1,4,yiwei_unclear,101,说,17632,44,yiwei,NA,NA,NA,other,non-say,0,unconstrained
439,condition1,4,juede_contrastive,20,说,16511,45,juede,NA,NA,NA,other,non-say,0,constrained
439,condition1,4,yiwei_contrastive,2,想,16842,46,yiwei,NA,NA,NA,other,ambiguous want,0,constrained
439,condition1,4,yiwei_unclear,106,怕,16951,47,yiwei,NA,NA,NA,other,non-emotion,0,unconstrained
439,condition1,4,yiwei_contrastive,6,以为,12503,49,yiwei,NA,NA,NA,yiwei,contra,1,constrained
439,condition1,4,juede_unclear,119,想,14618,50,juede,NA,NA,NA,other,non-belief,0,unconstrained
504,condition1,0,yiwei_contrastive,6,晚饭,11473,1,yiwei,NA,NA,NA,other,other,0,constrained
504,condition1,0,juede_contrastive,19,不是,8771,3,juede,NA,NA,NA,other,other,0,constrained
504,condition1,0,juede_contrastive,18,家,7053,4,juede,NA,NA,NA,other,other,0,constrained
504,condition1,0,yiwei_unclear,102,说,11498,5,yiwei,NA,NA,NA,other,non-say,0,unconstrained
504,condition1,0,juede_unclear,119,喂,11864,6,juede,NA,NA,NA,other,other,0,unconstrained
504,condition1,0,yiwei_contrastive,9,也,4193,7,yiwei,NA,NA,NA,other,other,0,constrained
504,condition1,0,juede_unclear,120,觉得有,15002,9,juede,NA,NA,NA,juede,non-belief,1,unconstrained
504,condition1,0,yiwei_unclear,110,说,12084,10,yiwei,NA,NA,NA,other,non-say,0,unconstrained
504,condition1,1,juede_contrastive,13,这,9248,11,juede,NA,NA,NA,other,other,0,constrained
504,condition1,1,juede_unclear,114,看,10693,13,juede,NA,NA,NA,other,non-other,0,unconstrained
504,condition1,1,yiwei_unclear,103,才,18913,14,yiwei,NA,NA,NA,other,other,0,unconstrained
504,condition1,1,yiwei_contrastive,3,就,5658,15,yiwei,NA,NA,NA,other,other,0,constrained
504,condition1,1,juede_unclear,116,看见,12177,16,juede,NA,NA,NA,other,factive-other,0,unconstrained
504,condition1,1,juede_contrastive,17,以为,12079,17,juede,NA,NA,NA,yiwei,contra,0,constrained
504,condition1,1,yiwei_contrastive,7,手,11263,18,yiwei,NA,NA,NA,other,other,0,constrained
504,condition1,1,yiwei_unclear,108,爸爸,27521,20,yiwei,NA,NA,NA,other,other,0,unconstrained
504,condition1,2,juede_unclear,115,不认为,7369,21,juede,NA,NA,NA,other,non-belief,0,unconstrained
504,condition1,2,juede_contrastive,16,的,5473,24,juede,NA,NA,NA,other,other,0,constrained
504,condition1,2,yiwei_contrastive,1,说,4191,25,yiwei,NA,NA,NA,other,non-say,0,constrained
504,condition1,2,juede_contrastive,20,说这,11268,26,juede,NA,NA,NA,other,non-say,0,constrained
504,condition1,2,yiwei_unclear,109,让,3081,27,yiwei,NA,NA,NA,other,other,0,unconstrained
504,condition1,2,juede_unclear,113,觉得,3742,28,juede,NA,NA,NA,juede,non-belief,1,unconstrained
504,condition1,2,yiwei_contrastive,10,不,20249,29,yiwei,NA,NA,NA,other,other,0,constrained
504,condition1,2,yiwei_unclear,105,也,8716,30,yiwei,NA,NA,NA,other,other,0,unconstrained
504,condition1,3,yiwei_unclear,101,以为,12946,31,yiwei,NA,NA,NA,yiwei,contra,1,unconstrained
504,condition1,3,juede_unclear,117,藏,6740,32,juede,NA,NA,NA,other,other,0,unconstrained
504,condition1,3,juede_contrastive,11,还是,3479,33,juede,NA,NA,NA,other,other,0,constrained
504,condition1,3,yiwei_unclear,104,小心,6746,34,yiwei,NA,NA,NA,other,other,0,unconstrained
504,condition1,3,juede_contrastive,14,也,4235,36,juede,NA,NA,NA,other,other,0,constrained
504,condition1,3,yiwei_contrastive,2,看是,9941,37,yiwei,NA,NA,NA,other,other,0,constrained
504,condition1,3,juede_unclear,112,真的,9607,38,juede,NA,NA,NA,other,other,0,unconstrained
504,condition1,3,yiwei_contrastive,4,认,5731,40,yiwei,NA,NA,NA,other,other,0,constrained
504,condition1,4,yiwei_contrastive,8,说我,9598,41,yiwei,NA,NA,NA,other,non-say,0,constrained
504,condition1,4,yiwei_contrastive,5,不知道,7373,42,yiwei,NA,NA,NA,other,factive-belief,0,constrained
504,condition1,4,juede_contrastive,12,觉得,6442,43,juede,NA,NA,NA,juede,non-belief,1,constrained
504,condition1,4,juede_contrastive,15,踢的,14173,44,juede,NA,NA,NA,other,other,0,constrained
504,condition1,4,juede_unclear,118,看,4029,45,juede,NA,NA,NA,other,non-other,0,unconstrained
504,condition1,4,yiwei_unclear,107,觉得,10678,48,yiwei,NA,NA,NA,juede,non-belief,0,unconstrained
504,condition1,4,yiwei_unclear,106,只有,8039,49,yiwei,NA,NA,NA,other,other,0,unconstrained
504,condition1,4,juede_unclear,111,觉得,7425,50,juede,NA,NA,NA,juede,non-belief,1,unconstrained
524,condition1,0,juede_contrastive,20,说,23041,2,juede,NA,NA,NA,other,non-say,0,constrained
524,condition1,0,juede_contrastive,17,看,8023,3,juede,NA,NA,NA,other,non-other,0,constrained
524,condition1,0,juede_unclear,118,猜,7270,4,juede,NA,NA,NA,other,non-belief,0,unconstrained
524,condition1,0,yiwei_contrastive,6,猜,9947,5,yiwei,NA,NA,NA,other,non-belief,0,constrained
524,condition1,0,juede_unclear,112,发现,114558,6,juede,NA,NA,NA,other,factive-other,0,unconstrained
524,condition1,0,yiwei_unclear,109,推测,19824,7,yiwei,NA,NA,NA,other,other,0,unconstrained
524,condition1,0,yiwei_unclear,105,玩,91180,8,yiwei,NA,NA,NA,other,other,0,unconstrained
524,condition1,0,yiwei_contrastive,7,像,105916,9,yiwei,NA,NA,NA,other,other,0,constrained
524,condition1,1,juede_unclear,120,扮演,11954,11,juede,NA,NA,NA,other,other,0,unconstrained
524,condition1,1,yiwei_unclear,101,责怪,10156,12,yiwei,NA,NA,NA,other,other,0,unconstrained
524,condition1,1,juede_contrastive,16,带来,25112,13,juede,NA,NA,NA,other,other,0,constrained
524,condition1,1,yiwei_contrastive,10,以为,5537,14,yiwei,NA,NA,NA,yiwei,contra,1,constrained
524,condition1,1,yiwei_contrastive,8,猜,8846,16,yiwei,NA,NA,NA,other,non-belief,0,constrained
524,condition1,1,juede_contrastive,14,猜,4973,18,juede,NA,NA,NA,other,non-belief,0,constrained
524,condition1,1,yiwei_unclear,106,看到,10257,19,yiwei,NA,NA,NA,other,factive-other,0,unconstrained
524,condition1,1,juede_unclear,117,放,9161,20,juede,NA,NA,NA,other,other,0,unconstrained
524,condition1,2,juede_unclear,115,说,6077,21,juede,NA,NA,NA,other,non-say,0,unconstrained
524,condition1,2,yiwei_contrastive,9,猜,4769,22,yiwei,NA,NA,NA,other,non-belief,0,constrained
524,condition1,2,yiwei_unclear,104,看,11017,23,yiwei,NA,NA,NA,other,non-other,0,unconstrained
524,condition1,2,yiwei_unclear,107,觉得,12118,25,yiwei,NA,NA,NA,juede,non-belief,0,unconstrained
524,condition1,2,yiwei_contrastive,3,说,18238,27,yiwei,NA,NA,NA,other,non-say,0,constrained
524,condition1,2,juede_unclear,116,说,12746,28,juede,NA,NA,NA,other,non-say,0,unconstrained
524,condition1,2,juede_contrastive,19,是,14588,29,juede,NA,NA,NA,other,other,0,constrained
524,condition1,2,juede_contrastive,15,看,10934,30,juede,NA,NA,NA,other,non-other,0,constrained
524,condition1,3,juede_unclear,113,觉得,6508,31,juede,NA,NA,NA,juede,non-belief,1,unconstrained
524,condition1,3,juede_unclear,114,觉得,9615,32,juede,NA,NA,NA,juede,non-belief,1,unconstrained
524,condition1,3,yiwei_contrastive,1,说,11562,34,yiwei,NA,NA,NA,other,non-say,0,constrained
524,condition1,3,yiwei_unclear,110,认为,20282,35,yiwei,NA,NA,NA,other,non-belief,0,unconstrained
524,condition1,3,yiwei_contrastive,4,觉得,8064,36,yiwei,NA,NA,NA,juede,non-belief,0,constrained
524,condition1,3,yiwei_unclear,108,以为,14747,37,yiwei,NA,NA,NA,yiwei,contra,1,unconstrained
524,condition1,3,juede_contrastive,13,看,10270,39,juede,NA,NA,NA,other,non-other,0,constrained
524,condition1,3,juede_contrastive,11,看,10435,40,juede,NA,NA,NA,other,non-other,0,constrained
524,condition1,4,juede_unclear,111,觉得,5157,41,juede,NA,NA,NA,juede,non-belief,1,unconstrained
524,condition1,4,yiwei_unclear,102,描述,10046,43,yiwei,NA,NA,NA,other,other,0,unconstrained
524,condition1,4,yiwei_unclear,103,以为,13096,44,yiwei,NA,NA,NA,yiwei,contra,1,unconstrained
524,condition1,4,yiwei_contrastive,2,以为,11101,45,yiwei,NA,NA,NA,yiwei,contra,1,constrained
524,condition1,4,juede_contrastive,12,认为,7849,47,juede,NA,NA,NA,other,non-belief,0,constrained
524,condition1,4,juede_contrastive,18,猜,8845,48,juede,NA,NA,NA,other,non-belief,0,constrained
524,condition1,4,juede_unclear,119,说,9075,49,juede,NA,NA,NA,other,non-say,0,unconstrained
524,condition1,4,yiwei_contrastive,5,猜,7720,50,yiwei,NA,NA,NA,other,non-belief,0,constrained
456,condition1,0,yiwei_contrastive,10,看,38992,1,yiwei,NA,NA,NA,other,non-other,0,constrained
456,condition1,0,juede_unclear,119,說,7759,2,juede,NA,NA,NA,other,non-say,0,unconstrained
456,condition1,0,yiwei_unclear,108,負責,87474,3,yiwei,NA,NA,NA,other,other,0,unconstrained
456,condition1,0,yiwei_contrastive,7,看,14018,4,yiwei,NA,NA,NA,other,non-other,0,constrained
456,condition1,0,juede_unclear,113,覺得,8835,5,juede,NA,NA,NA,juede,non-belief,1,unconstrained
456,condition1,0,juede_contrastive,14,看,23756,8,juede,NA,NA,NA,other,non-other,0,constrained
456,condition1,0,juede_contrastive,12,看,14917,9,juede,NA,NA,NA,other,non-other,0,constrained
456,condition1,0,yiwei_unclear,104,告訴,6762,10,yiwei,NA,NA,NA,other,non-say,0,unconstrained
456,condition1,1,yiwei_unclear,102,說,9650,11,yiwei,NA,NA,NA,other,non-say,0,unconstrained
456,condition1,1,yiwei_contrastive,1,說,14438,12,yiwei,NA,NA,NA,other,non-say,0,constrained
456,condition1,1,juede_unclear,112,說,6301,13,juede,NA,NA,NA,other,non-say,0,unconstrained
456,condition1,1,yiwei_contrastive,9,看,4564,14,yiwei,NA,NA,NA,other,non-other,0,constrained
456,condition1,1,juede_unclear,111,覺得,6099,16,juede,NA,NA,NA,juede,non-belief,1,unconstrained
456,condition1,1,yiwei_unclear,105,覺得,12234,17,yiwei,NA,NA,NA,juede,non-belief,0,unconstrained
456,condition1,1,juede_contrastive,15,摸,24984,19,juede,NA,NA,NA,other,other,0,constrained
456,condition1,1,juede_contrastive,11,看,5928,20,juede,NA,NA,NA,other,non-other,0,constrained
456,condition1,2,juede_contrastive,18,說,7067,21,juede,NA,NA,NA,other,non-say,0,constrained
456,condition1,2,juede_contrastive,19,說,15002,22,juede,NA,NA,NA,other,non-say,0,constrained
456,condition1,2,juede_unclear,118,覺得,6416,23,juede,NA,NA,NA,juede,non-belief,1,unconstrained
456,condition1,2,yiwei_contrastive,4,聽,9334,24,yiwei,NA,NA,NA,other,other,0,constrained
456,condition1,2,juede_unclear,116,看,8582,25,juede,NA,NA,NA,other,non-other,0,unconstrained
456,condition1,2,yiwei_contrastive,6,看,6082,28,yiwei,NA,NA,NA,other,non-other,0,constrained
456,condition1,2,yiwei_unclear,103,看,6217,29,yiwei,NA,NA,NA,other,non-other,0,unconstrained
456,condition1,2,yiwei_unclear,109,看,4083,30,yiwei,NA,NA,NA,other,non-other,0,unconstrained
456,condition1,3,juede_contrastive,20,覺得,11350,32,juede,NA,NA,NA,juede,non-belief,1,constrained
456,condition1,3,juede_unclear,114,看,11351,33,juede,NA,NA,NA,other,non-other,0,unconstrained
456,condition1,3,juede_contrastive,13,說,8465,34,juede,NA,NA,NA,other,non-say,0,constrained
456,condition1,3,yiwei_contrastive,5,看,7820,35,yiwei,NA,NA,NA,other,non-other,0,constrained
456,condition1,3,yiwei_unclear,106,說,10033,36,yiwei,NA,NA,NA,other,non-say,0,unconstrained
456,condition1,3,juede_unclear,117,看,5848,37,juede,NA,NA,NA,other,non-other,0,unconstrained
456,condition1,3,yiwei_contrastive,8,看,3651,38,yiwei,NA,NA,NA,other,non-other,0,constrained
456,condition1,3,yiwei_unclear,101,以為,7159,39,yiwei,NA,NA,NA,yiwei,contra,1,unconstrained
456,condition1,4,yiwei_contrastive,3,看,9350,42,yiwei,NA,NA,NA,other,non-other,0,constrained
456,condition1,4,juede_contrastive,17,覺得,5034,43,juede,NA,NA,NA,juede,non-belief,1,constrained
456,condition1,4,juede_unclear,120,覺得,10435,44,juede,NA,NA,NA,juede,non-belief,1,unconstrained
456,condition1,4,yiwei_unclear,110,覺得,17851,46,yiwei,NA,NA,NA,juede,non-belief,0,unconstrained
456,condition1,4,yiwei_contrastive,2,看,6002,47,yiwei,NA,NA,NA,other,non-other,0,constrained
456,condition1,4,yiwei_unclear,107,說,5565,48,yiwei,NA,NA,NA,other,non-say,0,unconstrained
456,condition1,4,juede_unclear,115,覺得,6735,49,juede,NA,NA,NA,juede,non-belief,1,unconstrained
456,condition1,4,juede_contrastive,16,覺得,6847,50,juede,NA,NA,NA,juede,non-belief,1,constrained
499,condition1,0,juede_contrastive,17,拿地,26630,1,juede,NA,NA,NA,other,other,0,constrained
499,condition1,0,yiwei_unclear,103,以为,21095,3,yiwei,NA,NA,NA,yiwei,contra,1,unconstrained
499,condition1,0,yiwei_contrastive,2,让,13425,4,yiwei,NA,NA,NA,other,other,0,constrained
499,condition1,0,juede_contrastive,12,觉得,4648,5,juede,NA,NA,NA,juede,non-belief,1,constrained
499,condition1,0,yiwei_contrastive,5,看,10911,6,yiwei,NA,NA,NA,other,non-other,0,constrained
499,condition1,0,yiwei_unclear,110,以为,17407,7,yiwei,NA,NA,NA,yiwei,contra,1,unconstrained
499,condition1,0,juede_unclear,120,站在,9553,8,juede,NA,NA,NA,other,other,0,unconstrained
499,condition1,0,juede_unclear,114,不像,16792,10,juede,NA,NA,NA,other,other,0,unconstrained
499,condition1,1,juede_contrastive,19,和这,20960,11,juede,NA,NA,NA,other,other,0,constrained
499,condition1,1,yiwei_contrastive,4,觉得,9984,12,yiwei,NA,NA,NA,juede,non-belief,0,constrained
499,condition1,1,juede_contrastive,13,拿的,18272,13,juede,NA,NA,NA,other,other,0,constrained
499,condition1,1,yiwei_contrastive,7,手,49151,14,yiwei,NA,NA,NA,other,other,0,constrained
499,condition1,1,yiwei_unclear,102,看到,6281,15,yiwei,NA,NA,NA,other,factive-other,0,unconstrained
499,condition1,1,yiwei_unclear,107,说,8679,17,yiwei,NA,NA,NA,other,non-say,0,unconstrained
499,condition1,1,juede_unclear,113,觉得,5680,18,juede,NA,NA,NA,juede,non-belief,1,unconstrained
499,condition1,1,juede_unclear,118,跑,6256,20,juede,NA,NA,NA,other,other,0,unconstrained
499,condition1,2,juede_unclear,111,认为,9464,22,juede,NA,NA,NA,other,non-belief,0,unconstrained
499,condition1,2,juede_contrastive,16,打开地,20320,23,juede,NA,NA,NA,other,other,0,constrained
499,condition1,2,yiwei_contrastive,3,想,24656,24,yiwei,NA,NA,NA,other,ambiguous want,0,constrained
499,condition1,2,yiwei_contrastive,9,有,9000,25,yiwei,NA,NA,NA,other,other,0,constrained
499,condition1,2,yiwei_unclear,101,以为,6952,26,yiwei,NA,NA,NA,yiwei,contra,1,unconstrained
499,condition1,2,juede_contrastive,20,找到地,12720,27,juede,NA,NA,NA,other,other,0,constrained
499,condition1,2,juede_unclear,112,觉得,6416,28,juede,NA,NA,NA,juede,non-belief,1,unconstrained
499,condition1,2,yiwei_unclear,104,跑，,25336,29,yiwei,NA,NA,NA,other,other,0,unconstrained
499,condition1,3,juede_contrastive,14,看,12599,32,juede,NA,NA,NA,other,non-other,0,constrained
499,condition1,3,yiwei_contrastive,10,确定,14664,33,yiwei,NA,NA,NA,other,other,0,constrained
499,condition1,3,yiwei_contrastive,8,看,25968,34,yiwei,NA,NA,NA,other,non-other,0,constrained
499,condition1,3,yiwei_unclear,106,以为,13217,35,yiwei,NA,NA,NA,yiwei,contra,1,unconstrained
499,condition1,3,juede_contrastive,18,说,19495,36,juede,NA,NA,NA,other,non-say,0,constrained
499,condition1,3,yiwei_unclear,105,喜欢,40345,37,yiwei,NA,NA,NA,other,other,0,unconstrained
499,condition1,3,juede_unclear,116,想,7343,38,juede,NA,NA,NA,other,non-belief,0,unconstrained
499,condition1,3,juede_unclear,119,觉得,4112,39,juede,NA,NA,NA,juede,non-belief,1,unconstrained
499,condition1,4,juede_contrastive,11,选,12425,41,juede,NA,NA,NA,other,other,0,constrained
499,condition1,4,juede_unclear,115,想,7632,43,juede,NA,NA,NA,other,non-belief,0,unconstrained
499,condition1,4,juede_unclear,117,看,9520,44,juede,NA,NA,NA,other,non-other,0,unconstrained
499,condition1,4,yiwei_unclear,108,认为,6952,45,yiwei,NA,NA,NA,other,non-belief,0,unconstrained
499,condition1,4,yiwei_unclear,109,以为,5480,46,yiwei,NA,NA,NA,yiwei,contra,1,unconstrained
499,condition1,4,juede_contrastive,15,看,6312,47,juede,NA,NA,NA,other,non-other,0,constrained
499,condition1,4,yiwei_contrastive,6,说,9271,48,yiwei,NA,NA,NA,other,non-say,0,constrained
499,condition1,4,yiwei_contrastive,1,说,4569,49,yiwei,NA,NA,NA,other,non-say,0,constrained
491,condition1,0,yiwei_contrastive,4,当,11832,1,yiwei,NA,NA,NA,other,contra,0,constrained
491,condition1,0,yiwei_unclear,110,担心,53778,3,yiwei,NA,NA,NA,other,non-emotion,0,unconstrained
491,condition1,0,yiwei_unclear,104,看,18927,4,yiwei,NA,NA,NA,other,non-other,0,unconstrained
491,condition1,0,juede_unclear,111,觉得,7508,5,juede,NA,NA,NA,juede,non-belief,1,unconstrained
491,condition1,0,yiwei_contrastive,7,肯定,17293,6,yiwei,NA,NA,NA,other,other,0,constrained
491,condition1,0,juede_contrastive,11,就,6248,7,juede,NA,NA,NA,other,other,0,constrained
491,condition1,0,juede_contrastive,14,当然,13314,8,juede,NA,NA,NA,other,contra,0,constrained
491,condition1,0,juede_unclear,116,看,11256,9,juede,NA,NA,NA,other,non-other,0,unconstrained
491,condition1,1,yiwei_contrastive,8,绝对,16495,11,yiwei,NA,NA,NA,other,other,0,constrained
491,condition1,1,yiwei_contrastive,9,也,6811,14,yiwei,NA,NA,NA,other,other,0,constrained
491,condition1,1,yiwei_unclear,109,让,4904,15,yiwei,NA,NA,NA,other,other,0,unconstrained
491,condition1,1,yiwei_unclear,103,是,12429,16,yiwei,NA,NA,NA,other,other,0,unconstrained
491,condition1,1,juede_contrastive,18,害怕,15517,17,juede,NA,NA,NA,other,non-emotion,0,constrained
491,condition1,1,juede_unclear,115,觉得,9134,18,juede,NA,NA,NA,juede,non-belief,1,unconstrained
491,condition1,1,juede_contrastive,16,感觉,8648,19,juede,NA,NA,NA,other,non-belief,0,constrained
491,condition1,1,juede_unclear,114,担心,14657,20,juede,NA,NA,NA,other,non-emotion,0,unconstrained
491,condition1,2,yiwei_unclear,108,认真,48692,21,yiwei,NA,NA,NA,other,other,0,unconstrained
491,condition1,2,juede_contrastive,17,肯定,24492,23,juede,NA,NA,NA,other,other,0,constrained
491,condition1,2,yiwei_contrastive,3,其实,6900,24,yiwei,NA,NA,NA,other,other,0,constrained
491,condition1,2,juede_unclear,118,觉得,17928,25,juede,NA,NA,NA,juede,non-belief,1,unconstrained
491,condition1,2,juede_contrastive,12,买的,14247,26,juede,NA,NA,NA,other,other,0,constrained
491,condition1,2,juede_unclear,119,快看,11050,28,juede,NA,NA,NA,other,factive-other,0,unconstrained
491,condition1,2,yiwei_unclear,105,其实,10044,29,yiwei,NA,NA,NA,other,other,0,unconstrained
491,condition1,2,yiwei_contrastive,6,知道,9510,30,yiwei,NA,NA,NA,other,factive-belief,0,constrained
491,condition1,3,yiwei_unclear,106,这样,13190,31,yiwei,NA,NA,NA,other,other,0,unconstrained
491,condition1,3,yiwei_contrastive,1,知道,10054,32,yiwei,NA,NA,NA,other,factive-belief,0,constrained
491,condition1,3,yiwei_contrastive,10,还当,7818,33,yiwei,NA,NA,NA,other,contra,0,constrained
491,condition1,3,juede_contrastive,19,有点,9401,36,juede,NA,NA,NA,other,other,0,constrained
491,condition1,3,yiwei_unclear,102,发现,13378,37,yiwei,NA,NA,NA,other,factive-other,0,unconstrained
491,condition1,3,juede_unclear,112,感觉,7188,38,juede,NA,NA,NA,other,non-belief,0,unconstrained
491,condition1,3,juede_unclear,113,觉得,4486,39,juede,NA,NA,NA,juede,non-belief,1,unconstrained
491,condition1,3,juede_contrastive,15,以为,21441,40,juede,NA,NA,NA,yiwei,contra,0,constrained
491,condition1,4,juede_contrastive,13,看重,28584,41,juede,NA,NA,NA,other,other,0,constrained
491,condition1,4,juede_unclear,117,藏,6816,42,juede,NA,NA,NA,other,other,0,unconstrained
491,condition1,4,juede_contrastive,20,就当,12751,43,juede,NA,NA,NA,other,contra,0,constrained
491,condition1,4,juede_unclear,120,以为,7923,44,juede,NA,NA,NA,yiwei,contra,0,unconstrained
491,condition1,4,yiwei_unclear,107,当,6406,46,yiwei,NA,NA,NA,other,contra,0,unconstrained
491,condition1,4,yiwei_contrastive,2,估计,6521,47,yiwei,NA,NA,NA,other,other,0,constrained
491,condition1,4,yiwei_contrastive,5,怕,10531,49,yiwei,NA,NA,NA,other,non-emotion,0,constrained
491,condition1,4,yiwei_unclear,101,以为,5947,50,yiwei,NA,NA,NA,yiwei,contra,1,unconstrained
462,condition1,0,yiwei_unclear,106,还,20204,2,yiwei,NA,NA,NA,other,other,0,unconstrained
462,condition1,0,yiwei_contrastive,1,煎,14310,3,yiwei,NA,NA,NA,other,other,0,constrained
462,condition1,0,yiwei_contrastive,9,们,4379,4,yiwei,NA,NA,NA,other,other,0,constrained
462,condition1,0,juede_unclear,114,怕,23118,6,juede,NA,NA,NA,other,non-emotion,0,unconstrained
462,condition1,0,yiwei_unclear,103,就,22459,7,yiwei,NA,NA,NA,other,other,0,unconstrained
462,condition1,0,juede_contrastive,18,的,12769,8,juede,NA,NA,NA,other,other,0,constrained
462,condition1,0,juede_contrastive,17,就,8833,9,juede,NA,NA,NA,other,other,0,constrained
462,condition1,0,juede_unclear,111,觉得,11342,10,juede,NA,NA,NA,juede,non-belief,1,unconstrained
462,condition1,1,yiwei_unclear,107,说,9285,11,yiwei,NA,NA,NA,other,non-say,0,unconstrained
462,condition1,1,yiwei_contrastive,7,怕,24556,12,yiwei,NA,NA,NA,other,non-emotion,0,constrained
462,condition1,1,juede_unclear,117,真,7171,15,juede,NA,NA,NA,other,other,0,unconstrained
462,condition1,1,juede_contrastive,20,应该,50998,16,juede,NA,NA,NA,other,other,0,constrained
462,condition1,1,yiwei_unclear,109,让,11624,17,yiwei,NA,NA,NA,other,other,0,unconstrained
462,condition1,1,juede_contrastive,19,觉得,9166,18,juede,NA,NA,NA,juede,non-belief,1,constrained
462,condition1,1,yiwei_contrastive,4,觉得,11209,19,yiwei,NA,NA,NA,juede,non-belief,0,constrained
462,condition1,1,juede_unclear,113,觉得,6537,20,juede,NA,NA,NA,juede,non-belief,1,unconstrained
462,condition1,2,juede_contrastive,12,住,5354,21,juede,NA,NA,NA,other,other,0,constrained
462,condition1,2,juede_unclear,115,相信,8386,22,juede,NA,NA,NA,other,non-belief,0,unconstrained
462,condition1,2,juede_unclear,112,觉得,14087,23,juede,NA,NA,NA,juede,non-belief,1,unconstrained
462,condition1,2,yiwei_contrastive,5,知道,16287,25,yiwei,NA,NA,NA,other,factive-belief,0,constrained
462,condition1,2,yiwei_unclear,104,别动,73369,26,yiwei,NA,NA,NA,other,other,0,unconstrained
462,condition1,2,juede_contrastive,14,就,5937,27,juede,NA,NA,NA,other,other,0,constrained
462,condition1,2,yiwei_contrastive,2,觉得,7529,29,yiwei,NA,NA,NA,juede,non-belief,0,constrained
462,condition1,2,yiwei_unclear,105,就,7620,30,yiwei,NA,NA,NA,other,other,0,unconstrained
462,condition1,3,juede_contrastive,11,吹走,35021,31,juede,NA,NA,NA,other,other,0,constrained
462,condition1,3,juede_contrastive,13,这,12888,32,juede,NA,NA,NA,other,other,0,constrained
462,condition1,3,yiwei_contrastive,10,也,6271,33,yiwei,NA,NA,NA,other,other,0,constrained
462,condition1,3,yiwei_unclear,110,相信,14186,35,yiwei,NA,NA,NA,other,non-belief,0,unconstrained
462,condition1,3,juede_unclear,120,让,51302,36,juede,NA,NA,NA,other,other,0,unconstrained
462,condition1,3,yiwei_contrastive,6,的,10652,37,yiwei,NA,NA,NA,other,other,0,constrained
462,condition1,3,yiwei_unclear,102,想,27676,38,yiwei,NA,NA,NA,other,non-belief,0,unconstrained
462,condition1,3,juede_unclear,116,遇到,10802,40,juede,NA,NA,NA,other,other,0,unconstrained
462,condition1,4,yiwei_contrastive,8,应该,5309,41,yiwei,NA,NA,NA,other,other,0,constrained
462,condition1,4,yiwei_unclear,101,觉得,23953,42,yiwei,NA,NA,NA,juede,non-belief,0,unconstrained
462,condition1,4,juede_contrastive,15,们,40607,43,juede,NA,NA,NA,other,other,0,constrained
462,condition1,4,juede_contrastive,16,的,5743,44,juede,NA,NA,NA,other,other,0,constrained
462,condition1,4,yiwei_unclear,108,离开,12199,45,yiwei,NA,NA,NA,other,other,0,unconstrained
462,condition1,4,juede_unclear,118,的,7525,46,juede,NA,NA,NA,other,other,0,unconstrained
462,condition1,4,yiwei_contrastive,3,觉得,27018,49,yiwei,NA,NA,NA,juede,non-belief,0,constrained
462,condition1,4,juede_unclear,119,抚摸,13635,50,juede,NA,NA,NA,other,other,0,unconstrained
498,condition1,0,juede_contrastive,19,不,58177,1,juede,NA,NA,NA,other,other,0,constrained
498,condition1,0,yiwei_contrastive,8,还,9431,3,yiwei,NA,NA,NA,other,other,0,constrained
498,condition1,0,juede_unclear,119,，,22438,5,juede,NA,NA,NA,other,other,0,unconstrained
498,condition1,0,yiwei_unclear,110,猜,12276,6,yiwei,NA,NA,NA,other,non-belief,0,unconstrained
498,condition1,0,juede_contrastive,20,说,7884,7,juede,NA,NA,NA,other,non-say,0,constrained
498,condition1,0,juede_unclear,112,说,12893,8,juede,NA,NA,NA,other,non-say,0,unconstrained
498,condition1,0,yiwei_unclear,106,此,9295,9,yiwei,NA,NA,NA,other,other,0,unconstrained
498,condition1,0,yiwei_contrastive,10,也,6575,10,yiwei,NA,NA,NA,other,other,0,constrained
498,condition1,1,yiwei_contrastive,4,说,4535,11,yiwei,NA,NA,NA,other,non-say,0,constrained
498,condition1,1,juede_contrastive,16,觉得,6518,12,juede,NA,NA,NA,juede,non-belief,1,constrained
498,condition1,1,yiwei_unclear,101,说,9869,15,yiwei,NA,NA,NA,other,non-say,0,unconstrained
498,condition1,1,yiwei_contrastive,9,看,3431,16,yiwei,NA,NA,NA,other,non-other,0,constrained
498,condition1,1,juede_unclear,114,发现,9858,17,juede,NA,NA,NA,other,factive-other,0,unconstrained
498,condition1,1,yiwei_unclear,105,喜欢,25868,18,yiwei,NA,NA,NA,other,other,0,unconstrained
498,condition1,1,juede_unclear,113,觉得,3946,19,juede,NA,NA,NA,juede,non-belief,1,unconstrained
498,condition1,1,juede_contrastive,13,看,20422,20,juede,NA,NA,NA,other,non-other,0,constrained
498,condition1,2,yiwei_unclear,109,说,5876,21,yiwei,NA,NA,NA,other,non-say,0,unconstrained
498,condition1,2,juede_unclear,116,发现,5702,22,juede,NA,NA,NA,other,factive-other,0,unconstrained
498,condition1,2,yiwei_unclear,104,看,4302,23,yiwei,NA,NA,NA,other,non-other,0,unconstrained
498,condition1,2,juede_contrastive,15,看,7323,24,juede,NA,NA,NA,other,non-other,0,constrained
498,condition1,2,juede_contrastive,18,认为,8018,25,juede,NA,NA,NA,other,non-belief,0,constrained
498,condition1,2,juede_unclear,115,看,3599,27,juede,NA,NA,NA,other,non-other,0,unconstrained
498,condition1,2,yiwei_contrastive,6,说,6029,28,yiwei,NA,NA,NA,other,non-say,0,constrained
498,condition1,2,yiwei_contrastive,7,看,3576,30,yiwei,NA,NA,NA,other,non-other,0,constrained
498,condition1,3,yiwei_unclear,107,说,4909,31,yiwei,NA,NA,NA,other,non-say,0,unconstrained
498,condition1,3,yiwei_contrastive,5,看,5865,32,yiwei,NA,NA,NA,other,non-other,0,constrained
498,condition1,3,yiwei_contrastive,1,说,3975,34,yiwei,NA,NA,NA,other,non-say,0,constrained
498,condition1,3,juede_contrastive,17,看,4327,35,juede,NA,NA,NA,other,non-other,0,constrained
498,condition1,3,juede_unclear,118,看,3874,37,juede,NA,NA,NA,other,non-other,0,unconstrained
498,condition1,3,juede_unclear,117,看,4950,38,juede,NA,NA,NA,other,non-other,0,unconstrained
498,condition1,3,yiwei_unclear,103,看,5248,39,yiwei,NA,NA,NA,other,non-other,0,unconstrained
498,condition1,3,juede_contrastive,12,看,3741,40,juede,NA,NA,NA,other,non-other,0,constrained
498,condition1,4,juede_unclear,120,留,86736,42,juede,NA,NA,NA,other,other,0,unconstrained
498,condition1,4,juede_unclear,111,kan,3924,44,juede,NA,NA,NA,other,non-other,0,unconstrained
498,condition1,4,yiwei_unclear,102,说,4145,45,yiwei,NA,NA,NA,other,non-say,0,unconstrained
498,condition1,4,yiwei_contrastive,3,看,5320,46,yiwei,NA,NA,NA,other,non-other,0,constrained
498,condition1,4,yiwei_unclear,108,发现,16421,47,yiwei,NA,NA,NA,other,factive-other,0,unconstrained
498,condition1,4,juede_contrastive,14,看,5817,48,juede,NA,NA,NA,other,non-other,0,constrained
498,condition1,4,juede_contrastive,11,还是,10604,49,juede,NA,NA,NA,other,other,0,constrained
498,condition1,4,yiwei_contrastive,2,看,4542,50,yiwei,NA,NA,NA,other,non-other,0,constrained
468,condition1,0,juede_contrastive,13,说的,42862,3,juede,NA,NA,NA,other,non-say,0,constrained
468,condition1,0,juede_contrastive,18,家的,10595,4,juede,NA,NA,NA,other,other,0,constrained
468,condition1,0,yiwei_unclear,106,是,12318,5,yiwei,NA,NA,NA,other,other,0,unconstrained
468,condition1,0,juede_unclear,112,说,7738,6,juede,NA,NA,NA,other,non-say,0,unconstrained
468,condition1,0,yiwei_contrastive,1,说,4862,7,yiwei,NA,NA,NA,other,non-say,0,constrained
468,condition1,0,yiwei_contrastive,10,知道,80441,8,yiwei,NA,NA,NA,other,factive-belief,0,constrained
468,condition1,0,yiwei_unclear,101,会说,13379,9,yiwei,NA,NA,NA,other,non-say,0,unconstrained
468,condition1,0,juede_unclear,111,觉得,6485,10,juede,NA,NA,NA,juede,non-belief,1,unconstrained
468,condition1,1,juede_unclear,113,都觉得,8381,11,juede,NA,NA,NA,juede,non-belief,1,unconstrained
468,condition1,1,yiwei_contrastive,9,也,6082,12,yiwei,NA,NA,NA,other,other,0,constrained
468,condition1,1,juede_contrastive,14,家,23250,13,juede,NA,NA,NA,other,other,0,constrained
468,condition1,1,juede_contrastive,19,长的,44969,14,juede,NA,NA,NA,other,other,0,constrained
468,condition1,1,juede_unclear,119,说,4444,15,juede,NA,NA,NA,other,non-say,0,unconstrained
468,condition1,1,yiwei_unclear,109,跟,18547,17,yiwei,NA,NA,NA,other,other,0,unconstrained
468,condition1,1,yiwei_unclear,110,看,208714,18,yiwei,NA,NA,NA,other,non-other,0,unconstrained
468,condition1,1,yiwei_contrastive,7,看见,18245,20,yiwei,NA,NA,NA,other,factive-other,0,constrained
468,condition1,2,juede_contrastive,15,看,50654,21,juede,NA,NA,NA,other,non-other,0,constrained
468,condition1,2,juede_unclear,116,看见,7831,22,juede,NA,NA,NA,other,factive-other,0,unconstrained
468,condition1,2,yiwei_contrastive,6,围巾,48425,23,yiwei,NA,NA,NA,other,other,0,constrained
468,condition1,2,juede_unclear,120,站,5970,24,juede,NA,NA,NA,other,other,0,unconstrained
468,condition1,2,yiwei_unclear,105,看,19401,26,yiwei,NA,NA,NA,other,non-other,0,unconstrained
468,condition1,2,juede_contrastive,20,说,14523,28,juede,NA,NA,NA,other,non-say,0,constrained
468,condition1,2,yiwei_unclear,104,那个,54065,29,yiwei,NA,NA,NA,other,other,0,unconstrained
468,condition1,2,yiwei_contrastive,3,不,23829,30,yiwei,NA,NA,NA,other,other,0,constrained
468,condition1,3,yiwei_contrastive,4,说,34749,32,yiwei,NA,NA,NA,other,non-say,0,constrained
468,condition1,3,yiwei_unclear,102,说,6199,33,yiwei,NA,NA,NA,other,non-say,0,unconstrained
468,condition1,3,juede_unclear,117,手机,7598,34,juede,NA,NA,NA,other,other,0,unconstrained
468,condition1,3,yiwei_contrastive,8,衣服,18619,35,yiwei,NA,NA,NA,other,other,0,constrained
468,condition1,3,juede_contrastive,17,抓到的,14632,37,juede,NA,NA,NA,other,other,0,constrained
468,condition1,3,juede_contrastive,11,我觉得,6427,38,juede,NA,NA,NA,juede,non-belief,1,constrained
468,condition1,3,juede_unclear,115,觉得,37168,39,juede,NA,NA,NA,juede,non-belief,1,unconstrained
468,condition1,3,yiwei_unclear,107,嫌弃,11615,40,yiwei,NA,NA,NA,other,other,0,unconstrained
468,condition1,4,juede_contrastive,12,觉得,7366,41,juede,NA,NA,NA,juede,non-belief,1,constrained
468,condition1,4,yiwei_unclear,103,看见,13267,42,yiwei,NA,NA,NA,other,factive-other,0,unconstrained
468,condition1,4,juede_unclear,114,怕,11285,44,juede,NA,NA,NA,other,non-emotion,0,unconstrained
468,condition1,4,yiwei_unclear,108,开车撞到人，那,95585,46,yiwei,NA,NA,NA,other,other,0,unconstrained
468,condition1,4,yiwei_contrastive,5,觉得,28596,47,yiwei,NA,NA,NA,juede,non-belief,0,constrained
468,condition1,4,juede_contrastive,16,的,11818,48,juede,NA,NA,NA,other,other,0,constrained
468,condition1,4,yiwei_contrastive,2,看,21917,49,yiwei,NA,NA,NA,other,non-other,0,constrained
468,condition1,4,juede_unclear,118,觉得,7848,50,juede,NA,NA,NA,juede,non-belief,1,unconstrained
467,condition1,0,yiwei_contrastive,2,看,5516,1,yiwei,NA,NA,NA,other,non-other,0,constrained
467,condition1,0,yiwei_contrastive,8,看,5700,3,yiwei,NA,NA,NA,other,non-other,0,constrained
467,condition1,0,juede_unclear,114,说,13951,5,juede,NA,NA,NA,other,non-say,0,unconstrained
467,condition1,0,juede_contrastive,18,说,3552,6,juede,NA,NA,NA,other,non-say,0,constrained
467,condition1,0,juede_contrastive,16,看,4117,7,juede,NA,NA,NA,other,non-other,0,constrained
467,condition1,0,yiwei_unclear,110,看,5133,8,yiwei,NA,NA,NA,other,non-other,0,unconstrained
467,condition1,0,yiwei_unclear,103,说,5431,9,yiwei,NA,NA,NA,other,non-say,0,unconstrained
467,condition1,0,juede_unclear,119,说,9750,10,juede,NA,NA,NA,other,non-say,0,unconstrained
467,condition1,1,juede_unclear,111,觉得,4354,11,juede,NA,NA,NA,juede,non-belief,1,unconstrained
467,condition1,1,yiwei_contrastive,6,看,3646,12,yiwei,NA,NA,NA,other,non-other,0,constrained
467,condition1,1,yiwei_unclear,104,看,3233,13,yiwei,NA,NA,NA,other,non-other,0,unconstrained
467,condition1,1,yiwei_unclear,109,说,2936,14,yiwei,NA,NA,NA,other,non-say,0,unconstrained
467,condition1,1,juede_contrastive,20,看,3496,16,juede,NA,NA,NA,other,non-other,0,constrained
467,condition1,1,juede_contrastive,12,看,4516,17,juede,NA,NA,NA,other,non-other,0,constrained
467,condition1,1,juede_unclear,113,听,6967,18,juede,NA,NA,NA,other,other,0,unconstrained
467,condition1,1,yiwei_contrastive,3,看,5833,20,yiwei,NA,NA,NA,other,non-other,0,constrained
467,condition1,2,yiwei_unclear,105,说,10651,21,yiwei,NA,NA,NA,other,non-say,0,unconstrained
467,condition1,2,juede_unclear,112,觉得,4900,22,juede,NA,NA,NA,juede,non-belief,1,unconstrained
467,condition1,2,yiwei_contrastive,1,说,2583,23,yiwei,NA,NA,NA,other,non-say,0,constrained
467,condition1,2,juede_unclear,117,看,4883,25,juede,NA,NA,NA,other,non-other,0,unconstrained
467,condition1,2,juede_contrastive,13,看,2917,26,juede,NA,NA,NA,other,non-other,0,constrained
467,condition1,2,juede_contrastive,11,看,10117,27,juede,NA,NA,NA,other,non-other,0,constrained
467,condition1,2,yiwei_unclear,102,说,3233,28,yiwei,NA,NA,NA,other,non-say,0,unconstrained
467,condition1,2,yiwei_contrastive,4,说,3231,30,yiwei,NA,NA,NA,other,non-say,0,constrained
467,condition1,3,juede_unclear,120,说,2566,31,juede,NA,NA,NA,other,non-say,0,unconstrained
467,condition1,3,juede_contrastive,17,看,2634,32,juede,NA,NA,NA,other,non-other,0,constrained
467,condition1,3,yiwei_contrastive,5,说,2983,33,yiwei,NA,NA,NA,other,non-say,0,constrained
467,condition1,3,yiwei_unclear,107,说,5267,34,yiwei,NA,NA,NA,other,non-say,0,unconstrained
467,condition1,3,juede_contrastive,19,觉得,9933,35,juede,NA,NA,NA,juede,non-belief,1,constrained
467,condition1,3,yiwei_contrastive,10,看,2865,37,yiwei,NA,NA,NA,other,non-other,0,constrained
467,condition1,3,yiwei_unclear,106,说,3733,39,yiwei,NA,NA,NA,other,non-say,0,unconstrained
467,condition1,3,juede_unclear,115,看,2753,40,juede,NA,NA,NA,other,non-other,0,unconstrained
467,condition1,4,yiwei_unclear,101,说,2697,42,yiwei,NA,NA,NA,other,non-say,0,unconstrained
467,condition1,4,yiwei_contrastive,7,看,2984,43,yiwei,NA,NA,NA,other,non-other,0,constrained
467,condition1,4,yiwei_unclear,108,说,3216,44,yiwei,NA,NA,NA,other,non-say,0,unconstrained
467,condition1,4,juede_contrastive,14,看,3683,45,juede,NA,NA,NA,other,non-other,0,constrained
467,condition1,4,juede_contrastive,15,看,3484,46,juede,NA,NA,NA,other,non-other,0,constrained
467,condition1,4,juede_unclear,116,认,10399,47,juede,NA,NA,NA,other,other,0,unconstrained
467,condition1,4,yiwei_contrastive,9,看,4917,48,yiwei,NA,NA,NA,other,non-other,0,constrained
467,condition1,4,juede_unclear,118,看,4337,49,juede,NA,NA,NA,other,non-other,0,unconstrained
445,condition1,0,juede_unclear,117,找,55586,1,juede,NA,NA,NA,other,other,0,unconstrained
445,condition1,0,yiwei_contrastive,10,才,14880,2,yiwei,NA,NA,NA,other,other,0,constrained
445,condition1,0,yiwei_unclear,110,說,7426,4,yiwei,NA,NA,NA,other,non-say,0,unconstrained
445,condition1,0,juede_unclear,118,看,4165,5,juede,NA,NA,NA,other,non-other,0,unconstrained
445,condition1,0,yiwei_contrastive,3,就,3669,6,yiwei,NA,NA,NA,other,other,0,constrained
445,condition1,0,juede_contrastive,12,看,4024,7,juede,NA,NA,NA,other,non-other,0,constrained
445,condition1,0,juede_contrastive,16,的,5011,9,juede,NA,NA,NA,other,other,0,constrained
445,condition1,0,yiwei_unclear,108,看,9121,10,yiwei,NA,NA,NA,other,non-other,0,unconstrained
445,condition1,1,juede_unclear,116,說,7092,11,juede,NA,NA,NA,other,non-say,0,unconstrained
445,condition1,1,yiwei_unclear,105,愛,13835,12,yiwei,NA,NA,NA,other,other,0,unconstrained
445,condition1,1,yiwei_contrastive,2,看,7227,13,yiwei,NA,NA,NA,other,non-other,0,constrained
445,condition1,1,juede_contrastive,13,說,12187,14,juede,NA,NA,NA,other,non-say,0,constrained
445,condition1,1,juede_unclear,113,說,3886,16,juede,NA,NA,NA,other,non-say,0,unconstrained
445,condition1,1,yiwei_unclear,101,說,4667,17,yiwei,NA,NA,NA,other,non-say,0,unconstrained
445,condition1,1,juede_contrastive,15,看,9125,19,juede,NA,NA,NA,other,non-other,0,constrained
445,condition1,1,yiwei_contrastive,5,跟,5335,20,yiwei,NA,NA,NA,other,other,0,constrained
445,condition1,2,juede_unclear,111,認為,16817,22,juede,NA,NA,NA,other,non-belief,0,unconstrained
445,condition1,2,juede_unclear,120,在,12537,23,juede,NA,NA,NA,other,other,0,unconstrained
445,condition1,2,juede_contrastive,11,看,8358,24,juede,NA,NA,NA,other,non-other,0,constrained
445,condition1,2,yiwei_unclear,103,說,25282,26,yiwei,NA,NA,NA,other,non-say,0,unconstrained
445,condition1,2,juede_contrastive,18,說,5462,27,juede,NA,NA,NA,other,non-say,0,constrained
445,condition1,2,yiwei_contrastive,6,看,22251,28,yiwei,NA,NA,NA,other,non-other,0,constrained
445,condition1,2,yiwei_unclear,107,說,7268,29,yiwei,NA,NA,NA,other,non-say,0,unconstrained
445,condition1,2,yiwei_contrastive,7,說,3911,30,yiwei,NA,NA,NA,other,non-say,0,constrained
445,condition1,3,juede_contrastive,17,說,3681,32,juede,NA,NA,NA,other,non-say,0,constrained
445,condition1,3,juede_contrastive,14,說,2918,34,juede,NA,NA,NA,other,non-say,0,constrained
445,condition1,3,yiwei_contrastive,4,看,3478,35,yiwei,NA,NA,NA,other,non-other,0,constrained
445,condition1,3,juede_unclear,115,說,2175,36,juede,NA,NA,NA,other,non-say,0,unconstrained
445,condition1,3,yiwei_contrastive,8,說,2361,37,yiwei,NA,NA,NA,other,non-say,0,constrained
445,condition1,3,yiwei_unclear,109,說,4901,38,yiwei,NA,NA,NA,other,non-say,0,unconstrained
445,condition1,3,juede_unclear,112,說,2390,39,juede,NA,NA,NA,other,non-say,0,unconstrained
445,condition1,3,yiwei_unclear,106,說,6980,40,yiwei,NA,NA,NA,other,non-say,0,unconstrained
445,condition1,4,juede_contrastive,20,看,5327,41,juede,NA,NA,NA,other,non-other,0,constrained
445,condition1,4,yiwei_contrastive,1,說,3574,42,yiwei,NA,NA,NA,other,non-say,0,constrained
445,condition1,4,yiwei_contrastive,9,說,2806,43,yiwei,NA,NA,NA,other,non-say,0,constrained
445,condition1,4,juede_unclear,114,看,4857,44,juede,NA,NA,NA,other,non-other,0,unconstrained
445,condition1,4,yiwei_unclear,102,說,2001,45,yiwei,NA,NA,NA,other,non-say,0,unconstrained
445,condition1,4,juede_unclear,119,說,2395,46,juede,NA,NA,NA,other,non-say,0,unconstrained
445,condition1,4,juede_contrastive,19,長,4433,48,juede,NA,NA,NA,other,other,0,constrained
445,condition1,4,yiwei_unclear,104,看,5678,50,yiwei,NA,NA,NA,other,non-other,0,unconstrained
487,condition1,0,juede_unclear,113,打,11968,1,juede,NA,NA,NA,other,other,0,unconstrained
487,condition1,0,juede_contrastive,19,是,20311,2,juede,NA,NA,NA,other,other,0,constrained
487,condition1,0,juede_contrastive,13,不,31792,4,juede,NA,NA,NA,other,other,0,constrained
487,condition1,0,juede_unclear,117,放,27904,5,juede,NA,NA,NA,other,other,0,unconstrained
487,condition1,0,yiwei_contrastive,10,還,32281,6,yiwei,NA,NA,NA,other,other,0,constrained
487,condition1,0,yiwei_contrastive,7,不,95151,7,yiwei,NA,NA,NA,other,other,0,constrained
487,condition1,0,yiwei_unclear,107,當,5932,8,yiwei,NA,NA,NA,other,contra,0,unconstrained
487,condition1,0,yiwei_unclear,104,國,59592,10,yiwei,NA,NA,NA,other,other,0,unconstrained
487,condition1,1,yiwei_contrastive,3,就,9352,11,yiwei,NA,NA,NA,other,other,0,constrained
487,condition1,1,juede_contrastive,15,看,36952,12,juede,NA,NA,NA,other,non-other,0,constrained
487,condition1,1,juede_unclear,112,覺得,30676,14,juede,NA,NA,NA,juede,non-belief,1,unconstrained
487,condition1,1,juede_contrastive,20,看,6596,15,juede,NA,NA,NA,other,non-other,0,constrained
487,condition1,1,yiwei_unclear,102,看,16004,17,yiwei,NA,NA,NA,other,non-other,0,unconstrained
487,condition1,1,yiwei_contrastive,6,的,7260,18,yiwei,NA,NA,NA,other,other,0,constrained
487,condition1,1,juede_unclear,119,瞧,9184,19,juede,NA,NA,NA,other,other,0,unconstrained
487,condition1,1,yiwei_unclear,106,剩,78280,20,yiwei,NA,NA,NA,other,other,0,unconstrained
487,condition1,2,yiwei_contrastive,2,在,9616,21,yiwei,NA,NA,NA,other,other,0,constrained
487,condition1,2,yiwei_unclear,108,答應,21660,22,yiwei,NA,NA,NA,other,other,0,unconstrained
487,condition1,2,juede_unclear,118,覺得,19180,23,juede,NA,NA,NA,juede,non-belief,1,unconstrained
487,condition1,2,yiwei_unclear,109,跟,25085,24,yiwei,NA,NA,NA,other,other,0,unconstrained
487,condition1,2,juede_contrastive,18,說,20143,25,juede,NA,NA,NA,other,non-say,0,constrained
487,condition1,2,yiwei_contrastive,4,聽說,12015,27,yiwei,NA,NA,NA,other,non-say,0,constrained
487,condition1,2,juede_contrastive,14,依舊,23092,28,juede,NA,NA,NA,other,other,0,constrained
487,condition1,2,juede_unclear,120,覺得,9968,29,juede,NA,NA,NA,juede,non-belief,1,unconstrained
487,condition1,3,juede_contrastive,11,覺得,11044,31,juede,NA,NA,NA,juede,non-belief,1,constrained
487,condition1,3,juede_unclear,114,認為,39312,33,juede,NA,NA,NA,other,non-belief,0,unconstrained
487,condition1,3,yiwei_unclear,103,以為,27293,34,yiwei,NA,NA,NA,yiwei,contra,1,unconstrained
487,condition1,3,juede_contrastive,12,覺得,6199,35,juede,NA,NA,NA,juede,non-belief,1,constrained
487,condition1,3,yiwei_contrastive,8,認為,10856,36,yiwei,NA,NA,NA,other,non-belief,0,constrained
487,condition1,3,yiwei_contrastive,1,說,6768,38,yiwei,NA,NA,NA,other,non-say,0,constrained
487,condition1,3,juede_unclear,111,覺得,5872,39,juede,NA,NA,NA,juede,non-belief,1,unconstrained
487,condition1,3,yiwei_unclear,105,玩的,47128,40,yiwei,NA,NA,NA,other,other,0,unconstrained
487,condition1,4,yiwei_unclear,110,說,15576,42,yiwei,NA,NA,NA,other,non-say,0,unconstrained
487,condition1,4,yiwei_contrastive,9,認為,7248,43,yiwei,NA,NA,NA,other,non-belief,0,constrained
487,condition1,4,yiwei_unclear,101,會認為,31323,44,yiwei,NA,NA,NA,other,non-belief,0,unconstrained
487,condition1,4,yiwei_contrastive,5,不知道,20948,45,yiwei,NA,NA,NA,other,factive-belief,0,constrained
487,condition1,4,juede_unclear,115,覺得,7353,47,juede,NA,NA,NA,juede,non-belief,1,unconstrained
487,condition1,4,juede_unclear,116,化作灰,27135,48,juede,NA,NA,NA,other,other,0,unconstrained
487,condition1,4,juede_contrastive,16,有的,13520,49,juede,NA,NA,NA,other,other,0,constrained
487,condition1,4,juede_contrastive,17,以為,7575,50,juede,NA,NA,NA,yiwei,contra,0,constrained
501,condition1,0,juede_unclear,117,看,12574,1,juede,NA,NA,NA,other,non-other,0,unconstrained
501,condition1,0,yiwei_contrastive,5,猜,7689,2,yiwei,NA,NA,NA,other,non-belief,0,constrained
501,condition1,0,juede_contrastive,16,看,3503,4,juede,NA,NA,NA,other,non-other,0,constrained
501,condition1,0,juede_unclear,120,跟,14374,6,juede,NA,NA,NA,other,other,0,unconstrained
501,condition1,0,yiwei_unclear,107,说,5089,7,yiwei,NA,NA,NA,other,non-say,0,unconstrained
501,condition1,0,yiwei_contrastive,9,看,3670,8,yiwei,NA,NA,NA,other,non-other,0,constrained
501,condition1,0,yiwei_unclear,103,看,5572,9,yiwei,NA,NA,NA,other,non-other,0,unconstrained
501,condition1,0,juede_contrastive,14,看,3739,10,juede,NA,NA,NA,other,non-other,0,constrained
501,condition1,1,yiwei_contrastive,1,说,6994,11,yiwei,NA,NA,NA,other,non-say,0,constrained
501,condition1,1,juede_contrastive,20,瞧,14711,12,juede,NA,NA,NA,other,other,0,constrained
501,condition1,1,yiwei_unclear,106,说,8275,13,yiwei,NA,NA,NA,other,non-say,0,unconstrained
501,condition1,1,juede_unclear,115,看,11150,15,juede,NA,NA,NA,other,non-other,0,unconstrained
501,condition1,1,juede_contrastive,18,说,9888,16,juede,NA,NA,NA,other,non-say,0,constrained
501,condition1,1,yiwei_contrastive,4,猜,4409,18,yiwei,NA,NA,NA,other,non-belief,0,constrained
501,condition1,1,yiwei_unclear,102,说,5398,19,yiwei,NA,NA,NA,other,non-say,0,unconstrained
501,condition1,1,juede_unclear,112,说,14752,20,juede,NA,NA,NA,other,non-say,0,unconstrained
501,condition1,2,yiwei_unclear,110,猜,4502,22,yiwei,NA,NA,NA,other,non-belief,0,unconstrained
501,condition1,2,juede_unclear,114,猜,18868,23,juede,NA,NA,NA,other,non-belief,0,unconstrained
501,condition1,2,juede_unclear,118,猜,3471,24,juede,NA,NA,NA,other,non-belief,0,unconstrained
501,condition1,2,yiwei_unclear,105,看,4093,26,yiwei,NA,NA,NA,other,non-other,0,unconstrained
501,condition1,2,juede_contrastive,17,看,4560,27,juede,NA,NA,NA,other,non-other,0,constrained
501,condition1,2,yiwei_contrastive,6,猜,2666,28,yiwei,NA,NA,NA,other,non-belief,0,constrained
501,condition1,2,juede_contrastive,15,看,3829,29,juede,NA,NA,NA,other,non-other,0,constrained
501,condition1,2,yiwei_contrastive,2,猜,3053,30,yiwei,NA,NA,NA,other,non-belief,0,constrained
501,condition1,3,juede_contrastive,13,看,4794,31,juede,NA,NA,NA,other,non-other,0,constrained
501,condition1,3,yiwei_unclear,101,猜,12494,32,yiwei,NA,NA,NA,other,non-belief,0,unconstrained
501,condition1,3,yiwei_unclear,104,看,4812,33,yiwei,NA,NA,NA,other,non-other,0,unconstrained
501,condition1,3,yiwei_contrastive,10,猜,4485,34,yiwei,NA,NA,NA,other,non-belief,0,constrained
501,condition1,3,yiwei_contrastive,8,看,3207,35,yiwei,NA,NA,NA,other,non-other,0,constrained
501,condition1,3,juede_unclear,113,说,3071,36,juede,NA,NA,NA,other,non-say,0,unconstrained
501,condition1,3,juede_unclear,111,看,3962,38,juede,NA,NA,NA,other,non-other,0,unconstrained
501,condition1,3,juede_contrastive,11,瞧,6161,39,juede,NA,NA,NA,other,other,0,constrained
501,condition1,4,yiwei_contrastive,3,看,10787,41,yiwei,NA,NA,NA,other,non-other,0,constrained
501,condition1,4,juede_contrastive,19,说,20089,44,juede,NA,NA,NA,other,non-say,0,constrained
501,condition1,4,juede_unclear,119,说,2935,45,juede,NA,NA,NA,other,non-say,0,unconstrained
501,condition1,4,yiwei_unclear,108,说,4413,46,yiwei,NA,NA,NA,other,non-say,0,unconstrained
501,condition1,4,juede_contrastive,12,看,2996,47,juede,NA,NA,NA,other,non-other,0,constrained
501,condition1,4,juede_unclear,116,猜,4131,48,juede,NA,NA,NA,other,non-belief,0,unconstrained
501,condition1,4,yiwei_unclear,109,看,4486,49,yiwei,NA,NA,NA,other,non-other,0,unconstrained
501,condition1,4,yiwei_contrastive,7,猜,3464,50,yiwei,NA,NA,NA,other,non-belief,0,constrained
432,condition1,0,yiwei_unclear,101,怪,12862,1,yiwei,NA,NA,NA,other,other,0,unconstrained
432,condition1,0,yiwei_contrastive,6,这个地方只能放名词吧？,72334,3,yiwei,NA,NA,NA,other,other,0,constrained
432,condition1,0,yiwei_contrastive,5,猜,16669,5,yiwei,NA,NA,NA,other,non-belief,0,constrained
432,condition1,0,juede_contrastive,12,觉得,8742,6,juede,NA,NA,NA,juede,non-belief,1,constrained
432,condition1,0,juede_contrastive,14,想,287379,7,juede,NA,NA,NA,other,ambiguous want,0,constrained
432,condition1,0,yiwei_unclear,110,想,9881,8,yiwei,NA,NA,NA,other,non-belief,0,unconstrained
432,condition1,0,juede_unclear,114,不像,24591,9,juede,NA,NA,NA,other,other,0,unconstrained
432,condition1,0,juede_unclear,118,搜索,17959,10,juede,NA,NA,NA,other,other,0,unconstrained
432,condition1,1,juede_contrastive,17,以为,13925,11,juede,NA,NA,NA,yiwei,contra,0,constrained
432,condition1,1,yiwei_unclear,108,觉得,22826,12,yiwei,NA,NA,NA,juede,non-belief,0,unconstrained
432,condition1,1,yiwei_unclear,107,以为,4578,13,yiwei,NA,NA,NA,yiwei,contra,1,unconstrained
432,condition1,1,juede_unclear,119,寻思,11617,16,juede,NA,NA,NA,other,other,0,unconstrained
432,condition1,1,juede_unclear,113,觉得,3514,17,juede,NA,NA,NA,juede,non-belief,1,unconstrained
432,condition1,1,juede_contrastive,11,觉得,5618,18,juede,NA,NA,NA,juede,non-belief,1,constrained
432,condition1,1,yiwei_contrastive,9,想,3870,19,yiwei,NA,NA,NA,other,ambiguous want,0,constrained
432,condition1,1,yiwei_contrastive,2,以为,3953,20,yiwei,NA,NA,NA,yiwei,contra,1,constrained
432,condition1,2,yiwei_contrastive,1,说,6434,22,yiwei,NA,NA,NA,other,non-say,0,constrained
432,condition1,2,juede_contrastive,19,觉得,8093,23,juede,NA,NA,NA,juede,non-belief,1,constrained
432,condition1,2,juede_unclear,111,觉得,5793,24,juede,NA,NA,NA,juede,non-belief,1,unconstrained
432,condition1,2,yiwei_unclear,102,以为,10141,25,yiwei,NA,NA,NA,yiwei,contra,1,unconstrained
432,condition1,2,yiwei_unclear,106,瞥见,16053,26,yiwei,NA,NA,NA,other,other,0,unconstrained
432,condition1,2,juede_contrastive,18,幻想,7340,27,juede,NA,NA,NA,other,non-other,0,constrained
432,condition1,2,juede_unclear,115,预感,8339,28,juede,NA,NA,NA,other,other,0,unconstrained
432,condition1,2,yiwei_contrastive,7,怕,13426,30,yiwei,NA,NA,NA,other,non-emotion,0,constrained
432,condition1,3,yiwei_unclear,104,别让,22528,33,yiwei,NA,NA,NA,other,other,0,unconstrained
432,condition1,3,juede_unclear,120,臆想,9666,34,juede,NA,NA,NA,other,non-other,0,unconstrained
432,condition1,3,juede_contrastive,13,摧毁,17337,35,juede,NA,NA,NA,other,other,0,constrained
432,condition1,3,yiwei_unclear,109,当,12798,36,yiwei,NA,NA,NA,other,contra,0,unconstrained
432,condition1,3,yiwei_contrastive,8,寻思,10745,37,yiwei,NA,NA,NA,other,other,0,constrained
432,condition1,3,juede_contrastive,20,以为,31739,38,juede,NA,NA,NA,yiwei,contra,0,constrained
432,condition1,3,juede_unclear,117,躲,11663,39,juede,NA,NA,NA,other,other,0,unconstrained
432,condition1,3,yiwei_contrastive,3,觉得,42916,40,yiwei,NA,NA,NA,juede,non-belief,0,constrained
432,condition1,4,yiwei_contrastive,4,想,5953,41,yiwei,NA,NA,NA,other,ambiguous want,0,constrained
432,condition1,4,yiwei_contrastive,10,以为,36865,42,yiwei,NA,NA,NA,yiwei,contra,1,constrained
432,condition1,4,yiwei_unclear,103,觉得,4831,43,yiwei,NA,NA,NA,juede,non-belief,0,unconstrained
432,condition1,4,juede_unclear,116,想,5252,44,juede,NA,NA,NA,other,non-belief,0,unconstrained
432,condition1,4,juede_contrastive,16,记得,4994,45,juede,NA,NA,NA,other,other,0,constrained
432,condition1,4,yiwei_unclear,105,以为,10330,47,yiwei,NA,NA,NA,yiwei,contra,1,unconstrained
432,condition1,4,juede_contrastive,15,寻思,17467,49,juede,NA,NA,NA,other,other,0,constrained
432,condition1,4,juede_unclear,112,起誓,29943,50,juede,NA,NA,NA,other,other,0,unconstrained
508,condition1,0,yiwei_contrastive,7,猜,14449,1,yiwei,NA,NA,NA,other,non-belief,0,constrained
508,condition1,0,yiwei_unclear,101,以为,8079,2,yiwei,NA,NA,NA,yiwei,contra,1,unconstrained
508,condition1,0,juede_unclear,119,说,8845,3,juede,NA,NA,NA,other,non-say,0,unconstrained
508,condition1,0,juede_contrastive,13,说,8447,4,juede,NA,NA,NA,other,non-say,0,constrained
508,condition1,0,yiwei_contrastive,2,以为,4783,5,yiwei,NA,NA,NA,yiwei,contra,1,constrained
508,condition1,0,juede_contrastive,18,讲,10686,6,juede,NA,NA,NA,other,non-say,0,constrained
508,condition1,0,juede_unclear,118,觉得,6227,7,juede,NA,NA,NA,juede,non-belief,1,unconstrained
508,condition1,0,yiwei_unclear,107,以为,11398,8,yiwei,NA,NA,NA,yiwei,contra,1,unconstrained
508,condition1,1,juede_contrastive,20,说猜,12882,11,juede,NA,NA,NA,other,non-belief,0,constrained
508,condition1,1,juede_unclear,120,觉得,12287,13,juede,NA,NA,NA,juede,non-belief,1,unconstrained
508,condition1,1,juede_unclear,111,觉得,5623,14,juede,NA,NA,NA,juede,non-belief,1,unconstrained
508,condition1,1,yiwei_unclear,102,以为,5355,15,yiwei,NA,NA,NA,yiwei,contra,1,unconstrained
508,condition1,1,juede_contrastive,16,觉得,4309,16,juede,NA,NA,NA,juede,non-belief,1,constrained
508,condition1,1,yiwei_unclear,106,以为,5823,17,yiwei,NA,NA,NA,yiwei,contra,1,unconstrained
508,condition1,1,yiwei_contrastive,5,以为,4627,18,yiwei,NA,NA,NA,yiwei,contra,1,constrained
508,condition1,1,yiwei_contrastive,1,说,3653,20,yiwei,NA,NA,NA,other,non-say,0,constrained
508,condition1,2,yiwei_unclear,104,提醒,14867,22,yiwei,NA,NA,NA,other,other,0,unconstrained
508,condition1,2,juede_unclear,114,以为,15985,23,juede,NA,NA,NA,yiwei,contra,0,unconstrained
508,condition1,2,juede_unclear,115,以为,4374,24,juede,NA,NA,NA,yiwei,contra,0,unconstrained
508,condition1,2,yiwei_unclear,108,觉得,16909,25,yiwei,NA,NA,NA,juede,non-belief,0,unconstrained
508,condition1,2,yiwei_contrastive,6,觉得,3960,26,yiwei,NA,NA,NA,juede,non-belief,0,constrained
508,condition1,2,juede_contrastive,19,觉得,4225,27,juede,NA,NA,NA,juede,non-belief,1,constrained
508,condition1,2,juede_contrastive,14,记得,5448,28,juede,NA,NA,NA,other,other,0,constrained
508,condition1,2,yiwei_contrastive,10,以为,5770,30,yiwei,NA,NA,NA,yiwei,contra,1,constrained
508,condition1,3,juede_contrastive,15,说,15338,31,juede,NA,NA,NA,other,non-say,0,constrained
508,condition1,3,yiwei_unclear,105,猜,8369,32,yiwei,NA,NA,NA,other,non-belief,0,unconstrained
508,condition1,3,yiwei_contrastive,4,以为,4337,34,yiwei,NA,NA,NA,yiwei,contra,1,constrained
508,condition1,3,juede_unclear,116,打死,37291,35,juede,NA,NA,NA,other,other,0,unconstrained
508,condition1,3,yiwei_contrastive,3,通知,99410,36,yiwei,NA,NA,NA,other,other,0,constrained
508,condition1,3,yiwei_unclear,103,以为,4446,38,yiwei,NA,NA,NA,yiwei,contra,1,unconstrained
508,condition1,3,juede_unclear,112,以为,12391,39,juede,NA,NA,NA,yiwei,contra,0,unconstrained
508,condition1,3,juede_contrastive,11,觉得,4635,40,juede,NA,NA,NA,juede,non-belief,1,constrained
508,condition1,4,juede_unclear,117,以为,6440,41,juede,NA,NA,NA,yiwei,contra,0,unconstrained
508,condition1,4,yiwei_contrastive,9,以为,5047,42,yiwei,NA,NA,NA,yiwei,contra,1,constrained
508,condition1,4,juede_contrastive,12,觉得,4941,43,juede,NA,NA,NA,juede,non-belief,1,constrained
508,condition1,4,yiwei_unclear,109,逼,12852,44,yiwei,NA,NA,NA,other,other,0,unconstrained
508,condition1,4,juede_unclear,113,觉得,3939,46,juede,NA,NA,NA,juede,non-belief,1,unconstrained
508,condition1,4,yiwei_unclear,110,因以为,14045,47,yiwei,NA,NA,NA,yiwei,contra,1,unconstrained
508,condition1,4,yiwei_contrastive,8,觉得,9543,48,yiwei,NA,NA,NA,juede,non-belief,0,constrained
508,condition1,4,juede_contrastive,17,以为,6325,50,juede,NA,NA,NA,yiwei,contra,0,constrained
454,condition1,0,juede_contrastive,14,还,26601,1,juede,NA,NA,NA,other,other,0,constrained
454,condition1,0,yiwei_contrastive,9,还,6291,2,yiwei,NA,NA,NA,other,other,0,constrained
454,condition1,0,juede_unclear,112,认为,32422,3,juede,NA,NA,NA,other,non-belief,0,unconstrained
454,condition1,0,yiwei_unclear,105,以为,22408,5,yiwei,NA,NA,NA,yiwei,contra,1,unconstrained
454,condition1,0,juede_contrastive,18,想象,19635,6,juede,NA,NA,NA,other,non-other,0,constrained
454,condition1,0,yiwei_contrastive,1,认为,16909,7,yiwei,NA,NA,NA,other,non-belief,0,constrained
454,condition1,0,yiwei_unclear,103,以为,24601,9,yiwei,NA,NA,NA,yiwei,contra,1,unconstrained
454,condition1,0,juede_unclear,115,以为,11410,10,juede,NA,NA,NA,yiwei,contra,0,unconstrained
454,condition1,1,yiwei_contrastive,10,还,13558,11,yiwei,NA,NA,NA,other,other,0,constrained
454,condition1,1,yiwei_contrastive,2,以为,9926,12,yiwei,NA,NA,NA,yiwei,contra,1,constrained
454,condition1,1,juede_contrastive,16,以为,16506,15,juede,NA,NA,NA,yiwei,contra,0,constrained
454,condition1,1,yiwei_unclear,106,想象,19024,16,yiwei,NA,NA,NA,other,non-other,0,unconstrained
454,condition1,1,juede_contrastive,11,还是,8333,17,juede,NA,NA,NA,other,other,0,constrained
454,condition1,1,juede_unclear,114,以为,21310,18,juede,NA,NA,NA,yiwei,contra,0,unconstrained
454,condition1,1,yiwei_unclear,107,以为,10260,19,yiwei,NA,NA,NA,yiwei,contra,1,unconstrained
454,condition1,1,juede_unclear,111,认为,6901,20,juede,NA,NA,NA,other,non-belief,0,unconstrained
454,condition1,2,juede_unclear,120,以为,18905,22,juede,NA,NA,NA,yiwei,contra,0,unconstrained
454,condition1,2,yiwei_contrastive,4,以为,10453,23,yiwei,NA,NA,NA,yiwei,contra,1,constrained
454,condition1,2,yiwei_unclear,108,承担,45866,24,yiwei,NA,NA,NA,other,other,0,unconstrained
454,condition1,2,juede_contrastive,17,认为,23561,25,juede,NA,NA,NA,other,non-belief,0,constrained
454,condition1,2,yiwei_unclear,102,想象,15936,26,yiwei,NA,NA,NA,other,non-other,0,unconstrained
454,condition1,2,yiwei_contrastive,8,以为,25051,27,yiwei,NA,NA,NA,yiwei,contra,1,constrained
454,condition1,2,juede_unclear,117,放,12582,28,juede,NA,NA,NA,other,other,0,unconstrained
454,condition1,2,juede_contrastive,13,以为,10890,29,juede,NA,NA,NA,yiwei,contra,0,constrained
454,condition1,3,juede_unclear,119,以为,82869,32,juede,NA,NA,NA,yiwei,contra,0,unconstrained
454,condition1,3,yiwei_unclear,110,认为,10444,33,yiwei,NA,NA,NA,other,non-belief,0,unconstrained
454,condition1,3,juede_unclear,113,认为,6102,34,juede,NA,NA,NA,other,non-belief,0,unconstrained
454,condition1,3,yiwei_contrastive,5,以为,10858,36,yiwei,NA,NA,NA,yiwei,contra,1,constrained
454,condition1,3,yiwei_contrastive,7,认为,20802,37,yiwei,NA,NA,NA,other,non-belief,0,constrained
454,condition1,3,yiwei_unclear,101,认为,7139,38,yiwei,NA,NA,NA,other,non-belief,0,unconstrained
454,condition1,3,juede_contrastive,20,以为,13551,39,juede,NA,NA,NA,yiwei,contra,0,constrained
454,condition1,3,juede_contrastive,15,想象,13424,40,juede,NA,NA,NA,other,non-other,0,constrained
454,condition1,4,juede_unclear,118,认为,8789,41,juede,NA,NA,NA,other,non-belief,0,unconstrained
454,condition1,4,yiwei_contrastive,3,认为,16145,42,yiwei,NA,NA,NA,other,non-belief,0,constrained
454,condition1,4,juede_contrastive,12,想象,13113,43,juede,NA,NA,NA,other,non-other,0,constrained
454,condition1,4,yiwei_contrastive,6,以为,6017,44,yiwei,NA,NA,NA,yiwei,contra,1,constrained
454,condition1,4,yiwei_unclear,104,看,28664,45,yiwei,NA,NA,NA,other,non-other,0,unconstrained
454,condition1,4,juede_contrastive,19,是,7932,46,juede,NA,NA,NA,other,other,0,constrained
454,condition1,4,juede_unclear,116,不认识,12679,47,juede,NA,NA,NA,other,other,0,unconstrained
454,condition1,4,yiwei_unclear,109,以为,6022,50,yiwei,NA,NA,NA,yiwei,contra,1,unconstrained
517,condition1,0,yiwei_unclear,104,让,18298,1,yiwei,NA,NA,NA,other,other,0,unconstrained
517,condition1,0,juede_contrastive,20,看,20892,2,juede,NA,NA,NA,other,non-other,0,constrained
517,condition1,0,juede_unclear,112,说,21163,3,juede,NA,NA,NA,other,non-say,0,unconstrained
517,condition1,0,yiwei_contrastive,5,发现,18626,4,yiwei,NA,NA,NA,other,factive-other,0,constrained
517,condition1,0,yiwei_contrastive,1,知道,15232,5,yiwei,NA,NA,NA,other,factive-belief,0,constrained
517,condition1,0,yiwei_unclear,108,犯错,19999,7,yiwei,NA,NA,NA,other,other,0,unconstrained
517,condition1,0,juede_contrastive,15,看,8521,8,juede,NA,NA,NA,other,non-other,0,constrained
517,condition1,0,juede_unclear,116,见过,20647,9,juede,NA,NA,NA,other,other,0,unconstrained
517,condition1,1,juede_contrastive,16,选的,101931,12,juede,NA,NA,NA,other,other,0,constrained
517,condition1,1,juede_unclear,120,站在,6239,13,juede,NA,NA,NA,other,other,0,unconstrained
517,condition1,1,yiwei_unclear,102,喊道,13890,14,yiwei,NA,NA,NA,other,non-say,0,unconstrained
517,condition1,1,yiwei_unclear,110,听说,13483,15,yiwei,NA,NA,NA,other,non-say,0,unconstrained
517,condition1,1,juede_contrastive,11,瞧,18361,16,juede,NA,NA,NA,other,other,0,constrained
517,condition1,1,juede_unclear,111,认为,7908,17,juede,NA,NA,NA,other,non-belief,0,unconstrained
517,condition1,1,yiwei_contrastive,9,相信,4184,18,yiwei,NA,NA,NA,other,non-belief,0,constrained
517,condition1,1,yiwei_contrastive,8,确认,4116,20,yiwei,NA,NA,NA,other,other,0,constrained
517,condition1,2,yiwei_unclear,101,以为,8828,22,yiwei,NA,NA,NA,yiwei,contra,1,unconstrained
517,condition1,2,yiwei_contrastive,10,确定,31287,23,yiwei,NA,NA,NA,other,other,0,constrained
517,condition1,2,yiwei_contrastive,4,写下,60086,25,yiwei,NA,NA,NA,other,other,0,constrained
517,condition1,2,juede_unclear,113,觉得,4790,26,juede,NA,NA,NA,juede,non-belief,1,unconstrained
517,condition1,2,juede_contrastive,14,记得,6128,27,juede,NA,NA,NA,other,other,0,constrained
517,condition1,2,juede_unclear,118,猜测,17343,28,juede,NA,NA,NA,other,non-belief,0,unconstrained
517,condition1,2,yiwei_unclear,103,说,91472,29,yiwei,NA,NA,NA,other,non-say,0,unconstrained
517,condition1,2,juede_contrastive,19,跳起来,123078,30,juede,NA,NA,NA,other,other,0,constrained
517,condition1,3,juede_unclear,115,知道,9860,31,juede,NA,NA,NA,other,factive-belief,0,unconstrained
517,condition1,3,yiwei_contrastive,7,确认,11577,33,yiwei,NA,NA,NA,other,other,0,constrained
517,condition1,3,yiwei_unclear,109,允许,16113,34,yiwei,NA,NA,NA,other,other,0,unconstrained
517,condition1,3,juede_unclear,119,抱着,9701,35,juede,NA,NA,NA,other,other,0,unconstrained
517,condition1,3,yiwei_unclear,107,以为,7523,36,yiwei,NA,NA,NA,yiwei,contra,1,unconstrained
517,condition1,3,yiwei_contrastive,2,以为,19082,37,yiwei,NA,NA,NA,yiwei,contra,1,constrained
517,condition1,3,juede_contrastive,18,听说,24070,39,juede,NA,NA,NA,other,non-say,0,constrained
517,condition1,3,juede_contrastive,17,看,14251,40,juede,NA,NA,NA,other,non-other,0,constrained
517,condition1,4,juede_contrastive,13,看,8995,41,juede,NA,NA,NA,other,non-other,0,constrained
517,condition1,4,yiwei_contrastive,6,猜,7215,42,yiwei,NA,NA,NA,other,non-belief,0,constrained
517,condition1,4,yiwei_contrastive,3,想,6356,44,yiwei,NA,NA,NA,other,ambiguous want,0,constrained
